Time,accX,accY,accZ,DT,Hour
1582686000001.0,4.024469375610352,-1.159238,8.687732696533203,2020-02-25 21:00:00.001000-06:00,2020-02-25 21:00
1582686000051.0,4.101724624633789,-0.5747356414794922,8.627723693847656,2020-02-25 21:00:00.051000-06:00,2020-02-25 21:00
1582686000101.0,4.898468017578125,-1.501556396484375,8.818645477294922,2020-02-25 21:00:00.101000-06:00,2020-02-25 21:00
1582686000151.0,5.58580207824707,-1.3217544555664062,9.636001586914062,2020-02-25 21:00:00.151000-06:00,2020-02-25 21:00
1582686000201.0,5.147600173950195,-1.33746337890625,8.651679992675781,2020-02-25 21:00:00.201000-06:00,2020-02-25 21:00
1582686000251.0,4.75665283203125,-1.3925628662109375,11.089340209960938,2020-02-25 21:00:00.251000-06:00,2020-02-25 21:00
1582686000301.0,4.196746826171875,-0.420623779296875,8.113807678222656,2020-02-25 21:00:00.301000-06:00,2020-02-25 21:00
1582686000351.0,4.639076232910156,-2.2348175048828125,9.484832763671875,2020-02-25 21:00:00.351000-06:00,2020-02-25 21:00
1582686000401.0,5.471469879150391,-2.2454757690429688,10.83612060546875,2020-02-25 21:00:00.401000-06:00,2020-02-25 21:00
1582686000451.0,6.710784912109375,-1.747812271118164,8.061912536621094,2020-02-25 21:00:00.451000-06:00,2020-02-25 21:00
1582686000501.0,7.087116241455078,-1.893099308013916,7.796005999999999,2020-02-25 21:00:00.501000-06:00,2020-02-25 21:00
1582686000551.0,6.78312873840332,-2.0599470138549805,8.071487426757812,2020-02-25 21:00:00.551000-06:00,2020-02-25 21:00
1582686000601.0,6.344390869140625,-1.8400402069091797,7.744264602661133,2020-02-25 21:00:00.601000-06:00,2020-02-25 21:00
1582686000651.0,6.102219581604004,-2.0288047790527344,7.489760398864746,2020-02-25 21:00:00.651000-06:00,2020-02-25 21:00
1582686000701.0,6.204015731811523,-2.380464553833008,7.581369161605835,2020-02-25 21:00:00.701000-06:00,2020-02-25 21:00
1582686000751.0,6.063160419464111,-2.4003467559814453,7.715277671813965,2020-02-25 21:00:00.751000-06:00,2020-02-25 21:00
1582686000801.0,5.774263381958008,-2.5055088996887207,7.673835277557373,2020-02-25 21:00:00.801000-06:00,2020-02-25 21:00
1582686000851.0,5.763484001159668,-2.4669413566589355,7.843196868896484,2020-02-25 21:00:00.851000-06:00,2020-02-25 21:00
1582686000901.0,5.801811397075653,-2.505748748779297,7.727734208106995,2020-02-25 21:00:00.901000-06:00,2020-02-25 21:00
1582686000951.0,5.880194664001465,-2.4365439414978027,7.813278794288635,2020-02-25 21:00:00.951000-06:00,2020-02-25 21:00
1582686001001.0,5.988181114196777,-2.495687484741211,7.777081489562988,2020-02-25 21:00:01.001000-06:00,2020-02-25 21:00
1582686001051.0,5.8827223777771,-2.659848213195801,7.681250095367432,2020-02-25 21:00:01.051000-06:00,2020-02-25 21:00
1582686001101.0,5.757813930511475,-2.6444482803344727,7.5197248458862305,2020-02-25 21:00:01.101000-06:00,2020-02-25 21:00
1582686001151.0,5.987104415893555,-2.408252239227295,7.866432189941406,2020-02-25 21:00:01.151000-06:00,2020-02-25 21:00
1582686001201.0,6.060046434402466,-2.420109272003174,7.6829376220703125,2020-02-25 21:00:01.201000-06:00,2020-02-25 21:00
1582686001251.0,6.0044708251953125,-2.346328020095825,7.547712326049805,2020-02-25 21:00:01.251000-06:00,2020-02-25 21:00
1582686001301.0,6.247014999389648,-2.336027145385742,7.667607307434082,2020-02-25 21:00:01.301000-06:00,2020-02-25 21:00
1582686001351.0,6.34702730178833,-2.1068973541259766,7.613469123840332,2020-02-25 21:00:01.351000-06:00,2020-02-25 21:00
1582686001401.0,6.393619775772095,-2.0529990196228027,7.5140557289123535,2020-02-25 21:00:01.401000-06:00,2020-02-25 21:00
1582686001451.0,6.388948440551758,-1.8517780303955078,7.372721195220947,2020-02-25 21:00:01.451000-06:00,2020-02-25 21:00
1582686001501.0,6.469916343688965,-1.808420181274414,7.462073177099228,2020-02-25 21:00:01.501000-06:00,2020-02-25 21:00
1582686001551.0,6.525252342224121,-1.5243120193481445,7.394999027252197,2020-02-25 21:00:01.551000-06:00,2020-02-25 21:00
1582686001601.0,6.498251438140869,-1.2272248268127441,7.40690803527832,2020-02-25 21:00:01.601000-06:00,2020-02-25 21:00
1582686001651.0,6.505130290985107,-1.1863069534301758,7.572505950927734,2020-02-25 21:00:01.651000-06:00,2020-02-25 21:00
1582686001701.0,6.464167058467865,-0.9891576766967773,7.535854816436768,2020-02-25 21:00:01.701000-06:00,2020-02-25 21:00
1582686001751.0,6.504651188850403,-0.7109203338623047,7.628082275390625,2020-02-25 21:00:01.751000-06:00,2020-02-25 21:00
1582686001801.0,6.582094192504883,-0.7982019186019897,7.508889198303223,2020-02-25 21:00:01.801000-06:00,2020-02-25 21:00
1582686001851.0,6.791240692138672,-0.8316850662231445,7.4296205043792725,2020-02-25 21:00:01.851000-06:00,2020-02-25 21:00
1582686001901.0,6.964825630187988,-0.9671192169189453,7.202759742736816,2020-02-25 21:00:01.901000-06:00,2020-02-25 21:00
1582686001951.0,7.097696781158447,-1.0179038047790527,6.943778038024902,2020-02-25 21:00:01.951000-06:00,2020-02-25 21:00
1582686002001.0,7.22509765625,-1.1130049228668213,6.852298736572266,2020-02-25 21:00:02.001000-06:00,2020-02-25 21:00
1582686002051.0,7.385836124420166,-1.1349236965179443,6.693597793579102,2020-02-25 21:00:02.051000-06:00,2020-02-25 21:00
1582686002101.0,7.568373680114746,-0.9858036041259766,6.614305734634399,2020-02-25 21:00:02.101000-06:00,2020-02-25 21:00
1582686002151.0,7.640117645263672,-0.9334621429443359,6.5073467791080475,2020-02-25 21:00:02.151000-06:00,2020-02-25 21:00
1582686002201.0,7.524415493011475,-1.0610226392745972,6.50339412689209,2020-02-25 21:00:02.201000-06:00,2020-02-25 21:00
1582686002251.0,7.597238540649414,-0.9520273208618164,6.529984354972839,2020-02-25 21:00:02.251000-06:00,2020-02-25 21:00
1582686002301.0,7.625385761260986,-0.9497513771057129,6.4474592208862305,2020-02-25 21:00:02.301000-06:00,2020-02-25 21:00
1582686002351.0,7.683237254619598,-0.8717780113220215,6.4791998863220215,2020-02-25 21:00:02.351000-06:00,2020-02-25 21:00
1582686002401.0,7.699423730373383,-0.761927604675293,6.545555114746094,2020-02-25 21:00:02.401000-06:00,2020-02-25 21:00
1582686002451.0,7.602577209472656,-0.7687716484069824,6.432624578475952,2020-02-25 21:00:02.451000-06:00,2020-02-25 21:00
1582686002501.0,7.683681488037109,-0.7482385635375977,6.472435474395752,2020-02-25 21:00:02.501000-06:00,2020-02-25 21:00
1582686002551.0,7.671499252319336,-0.7543988227844238,6.455244541168213,2020-02-25 21:00:02.551000-06:00,2020-02-25 21:00
1582686002601.0,7.651376962661743,-0.7941639423370361,6.500998377799988,2020-02-25 21:00:02.601000-06:00,2020-02-25 21:00
1582686002651.0,7.666468620300293,-0.7315213680267334,6.578852415084839,2020-02-25 21:00:02.651000-06:00,2020-02-25 21:00
1582686002701.0,7.677248001098633,-0.7699694633483887,6.503274917602539,2020-02-25 21:00:02.701000-06:00,2020-02-25 21:00
1582686002751.0,7.630776405334473,-0.7472114562988281,6.419431924819946,2020-02-25 21:00:02.751000-06:00,2020-02-25 21:00
1582686002801.0,7.749831676483154,-0.761106014251709,6.384817123413086,2020-02-25 21:00:02.801000-06:00,2020-02-25 21:00
1582686002851.0,7.683117389678955,-0.7484097480773926,6.4353620000000005,2020-02-25 21:00:02.851000-06:00,2020-02-25 21:00
1582686002901.0,7.68190860748291,-0.8014373779296875,6.449952840805054,2020-02-25 21:00:02.901000-06:00,2020-02-25 21:00
1582686002951.0,7.692339897155762,-0.8157234191894531,6.4497349999999996,2020-02-25 21:00:02.951000-06:00,2020-02-25 21:00
1582686003001.0,7.631254851818085,-0.8171606063842773,6.50531005859375,2020-02-25 21:00:03.001000-06:00,2020-02-25 21:00
1582686003051.0,7.707431674003601,-0.7577520608901978,6.5218400955200195,2020-02-25 21:00:03.051000-06:00,2020-02-25 21:00
1582686003101.0,7.661438465118408,-0.8214726448059082,6.429612725973129,2020-02-25 21:00:03.101000-06:00,2020-02-25 21:00
1582686003151.0,7.601071357727051,-0.8390789031982422,6.4957275390625,2020-02-25 21:00:03.151000-06:00,2020-02-25 21:00
1582686003201.0,7.679763555526733,-0.7863783836364746,6.51752769947052,2020-02-25 21:00:03.201000-06:00,2020-02-25 21:00
1582686003251.0,7.707979202270508,-0.8327656388282776,6.544528484344482,2020-02-25 21:00:03.251000-06:00,2020-02-25 21:00
1582686003301.0,7.702520847320557,-0.8105731010437012,6.391763687133789,2020-02-25 21:00:03.301000-06:00,2020-02-25 21:00
1582686003351.0,7.743723392486572,-0.8668670654296875,6.421947479248047,2020-02-25 21:00:03.351000-06:00,2020-02-25 21:00
1582686003401.0,7.794986724853516,-0.8780063390731812,6.4584784507751465,2020-02-25 21:00:03.401000-06:00,2020-02-25 21:00
1582686003451.0,7.7965439558029175,-0.825904369354248,6.378229141235352,2020-02-25 21:00:03.451000-06:00,2020-02-25 21:00
1582686003501.0,7.7836084,-0.8683047294616699,6.323492109775543,2020-02-25 21:00:03.501000-06:00,2020-02-25 21:00
1582686003551.0,7.777979135513306,-0.8281803131103516,6.2864813804626465,2020-02-25 21:00:03.551000-06:00,2020-02-25 21:00
1582686003601.0,7.750190734863281,-0.7906901836395264,6.310077667236328,2020-02-25 21:00:03.601000-06:00,2020-02-25 21:00
1582686003651.0,7.764444351196289,-0.8598005771636963,6.4530885219573975,2020-02-25 21:00:03.651000-06:00,2020-02-25 21:00
1582686003701.0,7.801133394241333,-0.8990108966827393,6.368413925170898,2020-02-25 21:00:03.701000-06:00,2020-02-25 21:00
1582686003751.0,7.796783745288849,-0.8514163494110107,6.257495880126953,2020-02-25 21:00:03.751000-06:00,2020-02-25 21:00
1582686003801.0,7.830320835113525,-0.8035058975219727,6.2431230545043945,2020-02-25 21:00:03.801000-06:00,2020-02-25 21:00
1582686003851.0,7.8530778884887695,-0.8770475387573242,6.2700724601745605,2020-02-25 21:00:03.851000-06:00,2020-02-25 21:00
1582686003901.0,7.792591571807861,-0.85860276222229,6.288637638092041,2020-02-25 21:00:03.901000-06:00,2020-02-25 21:00
1582686003951.0,7.796783924102783,-0.9077105522155762,6.3455305099487305,2020-02-25 21:00:03.951000-06:00,2020-02-25 21:00
1582686004001.0,7.727314352989197,-0.9202861785888672,6.353915214538574,2020-02-25 21:00:04.001000-06:00,2020-02-25 21:00
1582686004051.0,7.720127582550049,-0.878964900970459,6.426977634429932,2020-02-25 21:00:04.051000-06:00,2020-02-25 21:00
1582686004101.0,7.686275482177734,-0.8006694316864014,6.4271668791770935,2020-02-25 21:00:04.101000-06:00,2020-02-25 21:00
1582686004151.0,7.683955669403076,-0.783144474029541,6.519923210144043,2020-02-25 21:00:04.151000-06:00,2020-02-25 21:00
1582686004201.0,7.681081146001816,-0.7778744697570801,6.526391,2020-02-25 21:00:04.201000-06:00,2020-02-25 21:00
1582686004251.0,7.634745240211487,-0.8005973994731903,6.432281494140625,2020-02-25 21:00:04.251000-06:00,2020-02-25 21:00
1582686004301.0,7.667666256427765,-0.8372831344604492,6.48375129699707,2020-02-25 21:00:04.301000-06:00,2020-02-25 21:00
1582686004351.0,7.676290035247803,-0.8885465,6.444225311279297,2020-02-25 21:00:04.351000-06:00,2020-02-25 21:00
1582686004401.0,7.68443500995636,-0.9786176681518555,6.355831623077393,2020-02-25 21:00:04.401000-06:00,2020-02-25 21:00
1582686004451.0,7.699286699295044,-1.1276178359985352,6.434523582458496,2020-02-25 21:00:04.451000-06:00,2020-02-25 21:00
1582686004501.0,7.733681261539459,-1.094937801361084,6.37824821472168,2020-02-25 21:00:04.501000-06:00,2020-02-25 21:00
1582686004551.0,7.675811,-1.1496562957763672,6.318780899047852,2020-02-25 21:00:04.551000-06:00,2020-02-25 21:00
1582686004601.0,7.715399861335754,-1.2699352502822876,6.453012943267822,2020-02-25 21:00:04.601000-06:00,2020-02-25 21:00
1582686004651.0,7.643232345581055,-1.2499074935913086,6.310556411743164,2020-02-25 21:00:04.651000-06:00,2020-02-25 21:00
1582686004701.0,7.601310968399048,-1.2437991499900818,6.392602354288101,2020-02-25 21:00:04.701000-06:00,2020-02-25 21:00
1582686004751.0,7.658084273338318,-1.3513574600219727,6.511658668518066,2020-02-25 21:00:04.751000-06:00,2020-02-25 21:00
1582686004801.0,7.5943639278411865,-1.2923593521118164,6.461370468139648,2020-02-25 21:00:04.801000-06:00,2020-02-25 21:00
1582686004851.0,7.624547243118286,-1.3632144927978516,6.46003532409668,2020-02-25 21:00:04.851000-06:00,2020-02-25 21:00
1582686004901.0,7.533594131469727,-1.4335857629776,6.463225364685059,2020-02-25 21:00:04.901000-06:00,2020-02-25 21:00
1582686004951.0,7.571093320846558,-1.407001256942749,6.500382721424103,2020-02-25 21:00:04.951000-06:00,2020-02-25 21:00
1582686005001.0,7.521660566329956,-1.4155566000000002,6.520761489868164,2020-02-25 21:00:05.001000-06:00,2020-02-25 21:00
1582686005051.0,7.508605122566223,-1.4587955474853516,6.5666351318359375,2020-02-25 21:00:05.051000-06:00,2020-02-25 21:00
1582686005101.0,7.455065727233887,-1.4804745316505432,6.600651299999999,2020-02-25 21:00:05.101000-06:00,2020-02-25 21:00
1582686005151.0,7.427876710891724,-1.5029922425746918,6.660538673400879,2020-02-25 21:00:05.151000-06:00,2020-02-25 21:00
1582686005201.0,7.383560001850128,-1.4754443168640137,6.629397392272949,2020-02-25 21:00:05.201000-06:00,2020-02-25 21:00
1582686005251.0,7.283906936645508,-1.536768913269043,6.757077217102051,2020-02-25 21:00:05.251000-06:00,2020-02-25 21:00
1582686005301.0,7.1847333908081055,-1.3724374771118164,6.787500500679016,2020-02-25 21:00:05.301000-06:00,2020-02-25 21:00
1582686005351.0,7.151196479797363,-1.4538841247558594,6.963569641113281,2020-02-25 21:00:05.351000-06:00,2020-02-25 21:00
1582686005401.0,7.063361406326294,-1.4187507629394531,6.992486000061035,2020-02-25 21:00:05.401000-06:00,2020-02-25 21:00
1582686005451.0,7.112868547439575,-1.3520756959915161,7.080949783325195,2020-02-25 21:00:05.451000-06:00,2020-02-25 21:00
1582686005501.0,7.058609962463379,-1.4307677745819092,6.998064875602722,2020-02-25 21:00:05.501000-06:00,2020-02-25 21:00
1582686005551.0,7.031421184539795,-1.4251384735107422,6.973151206970215,2020-02-25 21:00:05.551000-06:00,2020-02-25 21:00
1582686005601.0,7.033816814422607,-1.3604600131511688,7.110893249511719,2020-02-25 21:00:05.601000-06:00,2020-02-25 21:00
1582686005651.0,7.027708411216736,-1.4645442962646484,7.123229742050171,2020-02-25 21:00:05.651000-06:00,2020-02-25 21:00
1582686005701.0,6.995489,-1.3682453632354736,7.0186662673950195,2020-02-25 21:00:05.701000-06:00,2020-02-25 21:00
1582686005751.0,7.0442376136779785,-1.353992223739624,7.07448136806488,2020-02-25 21:00:05.751000-06:00,2020-02-25 21:00
1582686005801.0,7.059808015823364,-1.4650239944458008,6.95758056640625,2020-02-25 21:00:05.801000-06:00,2020-02-25 21:00
1582686005851.0,7.096784591674805,-1.3830461502075195,7.053400999999999,2020-02-25 21:00:05.851000-06:00,2020-02-25 21:00
1582686005901.0,7.145150184631348,-1.4583334922790527,6.935338020324707,2020-02-25 21:00:05.901000-06:00,2020-02-25 21:00
1582686005951.0,7.127925753593445,-1.4412226676940918,6.90351128578186,2020-02-25 21:00:05.951000-06:00,2020-02-25 21:00
1582686006001.0,7.1847333908081055,-1.3779470920562744,6.879248142242432,2020-02-25 21:00:06.001000-06:00,2020-02-25 21:00
1582686006051.0,7.198148250579834,-1.3920807838439941,6.887153148651123,2020-02-25 21:00:06.051000-06:00,2020-02-25 21:00
1582686006101.0,7.1794633865356445,-1.3978300094604492,6.883799433708191,2020-02-25 21:00:06.101000-06:00,2020-02-25 21:00
1582686006151.0,7.2225823402404785,-1.3216533660888672,6.912066578865051,2020-02-25 21:00:06.151000-06:00,2020-02-25 21:00
1582686006201.0,7.214677095413208,-1.3345885276794434,6.849064826965332,2020-02-25 21:00:06.201000-06:00,2020-02-25 21:00
1582686006251.0,7.2163543701171875,-1.3101544380187988,6.82774543762207,2020-02-25 21:00:06.251000-06:00,2020-02-25 21:00
1582686006301.0,7.245938420295715,-1.332672119140625,6.850382447242737,2020-02-25 21:00:06.301000-06:00,2020-02-25 21:00
1582686006351.0,7.256598711013794,-1.2972187995910645,6.817204713821411,2020-02-25 21:00:06.351000-06:00,2020-02-25 21:00
1582686006401.0,7.251088976860046,-1.326085090637207,6.852298736572266,2020-02-25 21:00:06.401000-06:00,2020-02-25 21:00
1582686006451.0,7.264289379119873,-1.2863256931304932,6.82494592666626,2020-02-25 21:00:06.451000-06:00,2020-02-25 21:00
1582686006501.0,7.221624255180359,-1.1946916580200195,6.796483635902405,2020-02-25 21:00:06.501000-06:00,2020-02-25 21:00
1582686006551.0,7.209646224975586,-1.2604475021362305,6.925721168518066,2020-02-25 21:00:06.551000-06:00,2020-02-25 21:00
1582686006601.0,7.205788731575012,-1.1809237003326416,6.929717659950256,2020-02-25 21:00:06.601000-06:00,2020-02-25 21:00
1582686006651.0,7.178744673728943,-1.229905128479004,6.905838310718536,2020-02-25 21:00:06.651000-06:00,2020-02-25 21:00
1582686006701.0,7.155867576599121,-1.1969672441482544,6.9712353348731995,2020-02-25 21:00:06.701000-06:00,2020-02-25 21:00
1582686006751.0,7.101849019527435,-1.1371994018554688,7.016750335693359,2020-02-25 21:00:06.751000-06:00,2020-02-25 21:00
1582686006801.0,7.102851390838623,-1.0849775,7.0844337940216064,2020-02-25 21:00:06.801000-06:00,2020-02-25 21:00
1582686006851.0,7.015337407588959,-1.0473338961601257,7.067773818969727,2020-02-25 21:00:06.851000-06:00,2020-02-25 21:00
1582686006901.0,7.0127363204956055,-1.050003170967102,7.174134194850922,2020-02-25 21:00:06.901000-06:00,2020-02-25 21:00
1582686006951.0,6.944944381713867,-0.9402894973754883,7.190423488616943,2020-02-25 21:00:06.951000-06:00,2020-02-25 21:00
1582686007001.0,6.983990907669067,-1.1036624908447266,7.237375378608704,2020-02-25 21:00:07.001000-06:00,2020-02-25 21:00
1582686007051.0,6.956404685974121,-0.9114923477172852,7.190448880195618,2020-02-25 21:00:07.051000-06:00,2020-02-25 21:00
1582686007101.0,6.954765299999999,-0.9861631393432617,7.1258649826049805,2020-02-25 21:00:07.101000-06:00,2020-02-25 21:00
1582686007151.0,7.026031494140625,-0.9664003849029541,7.105503082275391,2020-02-25 21:00:07.151000-06:00,2020-02-25 21:00
1582686007201.0,7.036811292171478,-1.0292820930480957,7.097717761993408,2020-02-25 21:00:07.201000-06:00,2020-02-25 21:00
1582686007251.0,7.062815189361572,-1.0441279411315918,7.1276617,2020-02-25 21:00:07.251000-06:00,2020-02-25 21:00
1582686007301.0,6.972132921218872,-0.9999370574951172,7.102508544921875,2020-02-25 21:00:07.301000-06:00,2020-02-25 21:00
1582686007351.0,7.0068676471710205,-1.035271167755127,7.1797637939453125,2020-02-25 21:00:07.351000-06:00,2020-02-25 21:00
1582686007401.0,7.0237555503845215,-1.0485658645629883,7.14874267578125,2020-02-25 21:00:07.401000-06:00,2020-02-25 21:00
1582686007451.0,6.9562026262283325,-1.020298957824707,7.136764287948608,2020-02-25 21:00:07.451000-06:00,2020-02-25 21:00
1582686007501.0,7.013455271720886,-1.0622200965881348,7.12945818901062,2020-02-25 21:00:07.501000-06:00,2020-02-25 21:00
1582686007551.0,6.993093490600586,-1.0145498514175415,7.198088645935059,2020-02-25 21:00:07.551000-06:00,2020-02-25 21:00
1582686007601.0,7.008903741836548,-1.0377860069274902,7.169103145599365,2020-02-25 21:00:07.601000-06:00,2020-02-25 21:00
1582686007651.0,6.933836460113525,-1.060644268989563,7.2040650844573975,2020-02-25 21:00:07.651000-06:00,2020-02-25 21:00
1582686007701.0,6.989021301269531,-1.0241318345069885,7.133889675140381,2020-02-25 21:00:07.701000-06:00,2020-02-25 21:00
1582686007751.0,6.971653938293457,-1.0128729343414307,7.205515146255493,2020-02-25 21:00:07.751000-06:00,2020-02-25 21:00
1582686007801.0,6.954286336898804,-1.0529975891113281,7.167906761169434,2020-02-25 21:00:07.801000-06:00,2020-02-25 21:00
1582686007851.0,7.004352390766144,-1.090726613998413,7.1638336181640625,2020-02-25 21:00:07.851000-06:00,2020-02-25 21:00
1582686007901.0,6.981834650039673,-1.0369477272033691,7.146346569061279,2020-02-25 21:00:07.901000-06:00,2020-02-25 21:00
1582686007951.0,7.012635707855225,-1.08207768201828,7.158298492431641,2020-02-25 21:00:07.951000-06:00,2020-02-25 21:00
1582686008001.0,6.992751359939575,-1.0315918922424316,7.160400152206421,2020-02-25 21:00:08.001000-06:00,2020-02-25 21:00
1582686008051.0,6.985188245773315,-1.101506233215332,7.056995391845703,2020-02-25 21:00:08.051000-06:00,2020-02-25 21:00
1582686008101.0,7.009861946105957,-1.0215598344802856,7.236467361450195,2020-02-25 21:00:08.101000-06:00,2020-02-25 21:00
1582686008151.0,6.984948635101318,-1.1103696823120117,7.100113868713379,2020-02-25 21:00:08.151000-06:00,2020-02-25 21:00
1582686008201.0,6.989739775657654,-1.062459945678711,7.139639377593994,2020-02-25 21:00:08.201000-06:00,2020-02-25 21:00
1582686008251.0,7.013215780258179,-1.1314501762390137,7.153053879737854,2020-02-25 21:00:08.251000-06:00,2020-02-25 21:00
1582686008301.0,6.989260673522949,-1.0883312225341797,7.131494522094727,2020-02-25 21:00:08.301000-06:00,2020-02-25 21:00
1582686008351.0,7.018309116363525,-1.1045188903808594,7.126148700714111,2020-02-25 21:00:08.351000-06:00,2020-02-25 21:00
1582686008401.0,6.986385822296143,-1.0603036880493164,7.191501140594482,2020-02-25 21:00:08.401000-06:00,2020-02-25 21:00
1582686008451.0,6.996806621551514,-1.0567107200622559,7.186111688613892,2020-02-25 21:00:08.451000-06:00,2020-02-25 21:00
1582686008501.0,6.946860313415527,-1.0477274656295776,7.178685188293457,2020-02-25 21:00:08.501000-06:00,2020-02-25 21:00
1582686008551.0,7.0520219802856445,-1.062938928604126,7.1514968276023865,2020-02-25 21:00:08.551000-06:00,2020-02-25 21:00
1582686008601.0,6.979918479919434,-1.052638292312622,7.0186662673950195,2020-02-25 21:00:08.601000-06:00,2020-02-25 21:00
1582686008651.0,6.981595039367676,-1.1521716117858887,7.1749725341796875,2020-02-25 21:00:08.651000-06:00,2020-02-25 21:00
1582686008701.0,6.941875457763672,-1.077791,7.164278984069824,2020-02-25 21:00:08.701000-06:00,2020-02-25 21:00
1582686008751.0,6.885296821594238,-0.9604120254516602,7.465427398681641,2020-02-25 21:00:08.751000-06:00,2020-02-25 21:00
1582686008801.0,6.94039249420166,-1.0334742069244385,7.197131156921387,2020-02-25 21:00:08.801000-06:00,2020-02-25 21:00
1582686008851.0,6.882900714874268,-1.116119384765625,7.23785400390625,2020-02-25 21:00:08.851000-06:00,2020-02-25 21:00
1582686008901.0,6.985907554626465,-1.176006555557251,7.160000681877136,2020-02-25 21:00:08.901000-06:00,2020-02-25 21:00
1582686008951.0,6.999201774597168,-1.1815159320831299,7.159042537212372,2020-02-25 21:00:08.951000-06:00,2020-02-25 21:00
1582686009001.0,7.002675533294678,-1.1185145378112793,7.0941243,2020-02-25 21:00:09.001000-06:00,2020-02-25 21:00
1582686009051.0,7.031421661376953,-1.070604383945465,7.177966117858887,2020-02-25 21:00:09.051000-06:00,2020-02-25 21:00
1582686009101.0,6.99189555644989,-1.0394630432128906,7.160000801086426,2020-02-25 21:00:09.101000-06:00,2020-02-25 21:00
1582686009151.0,6.985906958580017,-1.0442538261413574,7.156407594680786,2020-02-25 21:00:09.151000-06:00,2020-02-25 21:00
1582686009201.0,6.965545296669006,-1.0598247051239014,7.15161657333374,2020-02-25 21:00:09.201000-06:00,2020-02-25 21:00
1582686009251.0,6.97872069478035,-1.0658134818077087,7.177967071533203,2020-02-25 21:00:09.251000-06:00,2020-02-25 21:00
1582686009301.0,6.98830246925354,-1.0394630432128906,7.150418788194656,2020-02-25 21:00:09.301000-06:00,2020-02-25 21:00
1582686009351.0,6.983990550041199,-1.0465297102928162,7.169942378997803,2020-02-25 21:00:09.351000-06:00,2020-02-25 21:00
1582686009401.0,6.979062795639038,-1.0493872165679932,7.162681341171265,2020-02-25 21:00:09.401000-06:00,2020-02-25 21:00
1582686009451.0,6.96614408493042,-1.051320731639862,7.1530537605285645,2020-02-25 21:00:09.451000-06:00,2020-02-25 21:00
1582686009501.0,6.973450660705566,-1.076952576637268,7.2450408935546875,2020-02-25 21:00:09.501000-06:00,2020-02-25 21:00
1582686009551.0,6.995129585266113,-1.0594663619995117,7.1756911277771,2020-02-25 21:00:09.551000-06:00,2020-02-25 21:00
1582686009601.0,6.942428827285767,-1.0474882125854492,7.166947603225708,2020-02-25 21:00:09.601000-06:00,2020-02-25 21:00
1582686009651.0,6.967461585998535,-1.0126334428787231,7.242884635925293,2020-02-25 21:00:09.651000-06:00,2020-02-25 21:00
1582686009701.0,6.943472385406494,-1.0339876413345337,7.2176642417907715,2020-02-25 21:00:09.701000-06:00,2020-02-25 21:00
1582686009751.0,7.072624206542969,-1.1130051612854004,7.170540809631348,2020-02-25 21:00:09.751000-06:00,2020-02-25 21:00
1582686009801.0,6.969643592834473,-1.0878782272338867,7.181623458862305,2020-02-25 21:00:09.801000-06:00,2020-02-25 21:00
1582686009851.0,6.913563251495361,-0.9467573165893555,7.273068189620972,2020-02-25 21:00:09.851000-06:00,2020-02-25 21:00
1582686009901.0,6.989260673522949,-0.9958648681640625,7.291034460067749,2020-02-25 21:00:09.901000-06:00,2020-02-25 21:00
1582686009951.0,6.936610221862793,-1.0144996643066406,7.1424126625061035,2020-02-25 21:00:09.951000-06:00,2020-02-25 21:00
1582686010001.0,6.9102091789245605,-0.6820545196533203,7.221086502075195,2020-02-25 21:00:10.001000-06:00,2020-02-25 21:00
1582686010051.0,6.92817547917366,-0.8138070106506348,7.317624807357788,2020-02-25 21:00:10.051000-06:00,2020-02-25 21:00
1582686010101.0,6.884697079658508,-0.6996612548828125,7.262647807598114,2020-02-25 21:00:10.101000-06:00,2020-02-25 21:00
1582686010151.0,6.892362594604492,-0.7228976786136627,7.360024929046631,2020-02-25 21:00:10.151000-06:00,2020-02-25 21:00
1582686010201.0,6.846129596233368,-0.6477985382080078,7.256778955459595,2020-02-25 21:00:10.201000-06:00,2020-02-25 21:00
1582686010251.0,6.866850674152374,-0.6464810371398926,7.356191635131836,2020-02-25 21:00:10.251000-06:00,2020-02-25 21:00
1582686010301.0,6.849842071533203,-0.6273174285888672,7.294747591018677,2020-02-25 21:00:10.301000-06:00,2020-02-25 21:00
1582686010351.0,6.850452423095703,-0.6002159118652344,7.419259071350098,2020-02-25 21:00:10.351000-06:00,2020-02-25 21:00
1582686010401.0,6.856045722961426,-0.6837944984436035,7.3218231201171875,2020-02-25 21:00:10.401000-06:00,2020-02-25 21:00
1582686010451.0,6.80816125869751,-0.5767721831798553,7.374997138977051,2020-02-25 21:00:10.451000-06:00,2020-02-25 21:00
1582686010501.0,6.892961502075195,-0.623843789100647,7.345172882080078,2020-02-25 21:00:10.501000-06:00,2020-02-25 21:00
1582686010551.0,6.840499997138977,-0.6007271707057953,7.305047988891602,2020-02-25 21:00:10.551000-06:00,2020-02-25 21:00
1582686010601.0,6.8776304721832275,-0.6171362400054932,7.331758499145508,2020-02-25 21:00:10.601000-06:00,2020-02-25 21:00
1582686010651.0,6.8709229999999994,-0.6676814556121826,7.299658417701721,2020-02-25 21:00:10.651000-06:00,2020-02-25 21:00
1582686010701.0,6.885296,-0.6549853086471558,7.273067951202393,2020-02-25 21:00:10.701000-06:00,2020-02-25 21:00
1582686010751.0,6.944584608078003,-0.696906328201294,7.296544075012207,2020-02-25 21:00:10.751000-06:00,2020-02-25 21:00
1582686010801.0,6.9205098152160645,-0.694271445274353,7.2828898429870605,2020-02-25 21:00:10.801000-06:00,2020-02-25 21:00
1582686010851.0,6.939793705940247,-0.6771435737609863,7.286962270736694,2020-02-25 21:00:10.851000-06:00,2020-02-25 21:00
1582686010901.0,6.925420522689819,-0.6807368993759155,7.256419658660889,2020-02-25 21:00:10.901000-06:00,2020-02-25 21:00
1582686010951.0,6.931038856506348,-0.6597194671630859,7.2929511070251465,2020-02-25 21:00:10.951000-06:00,2020-02-25 21:00
1582686011001.0,6.9369882345199585,-0.6894679069519043,7.245797157287598,2020-02-25 21:00:11.001000-06:00,2020-02-25 21:00
1582686011051.0,6.921348333358765,-0.6565423309803009,7.250310897827148,2020-02-25 21:00:11.051000-06:00,2020-02-25 21:00
1582686011101.0,6.961195558309555,-0.684424638748169,7.26105260848999,2020-02-25 21:00:11.101000-06:00,2020-02-25 21:00
1582686011151.0,6.956404685974121,-0.6647563576698303,7.253488302230835,2020-02-25 21:00:11.151000-06:00,2020-02-25 21:00
1582686011201.0,6.9630866050720215,-0.7078752517700195,7.254622936248779,2020-02-25 21:00:11.201000-06:00,2020-02-25 21:00
1582686011251.0,6.960035800933838,-0.6906782388687134,7.2450408935546875,2020-02-25 21:00:11.251000-06:00,2020-02-25 21:00
1582686011301.0,6.920201778411865,-0.6462588310241699,7.242303371429443,2020-02-25 21:00:11.301000-06:00,2020-02-25 21:00
1582686011351.0,6.974812150001526,-0.6660170555114746,7.259539604187012,2020-02-25 21:00:11.351000-06:00,2020-02-25 21:00
1582686011401.0,6.944048821926117,-0.6824073791503906,7.2813520431518555,2020-02-25 21:00:11.401000-06:00,2020-02-25 21:00
1582686011451.0,6.916437387466431,-0.6615729331970215,7.290555715560913,2020-02-25 21:00:11.451000-06:00,2020-02-25 21:00
1582686011501.0,6.926019668579102,-0.637019,7.281572341918945,2020-02-25 21:00:11.501000-06:00,2020-02-25 21:00
1582686011551.0,6.979319334030151,-0.6693582534790039,7.276183128356934,2020-02-25 21:00:11.551000-06:00,2020-02-25 21:00
1582686011601.0,6.896076202392578,-0.6657652854919434,7.260611534118652,2020-02-25 21:00:11.601000-06:00,2020-02-25 21:00
1582686011651.0,6.941111117601395,-0.6461217403411865,7.256778717041016,2020-02-25 21:00:11.651000-06:00,2020-02-25 21:00
1582686011701.0,6.89966893196106,-0.654266357421875,7.2943878173828125,2020-02-25 21:00:11.701000-06:00,2020-02-25 21:00
1582686011751.0,6.93679940700531,-0.6244421005249023,7.28816032409668,2020-02-25 21:00:11.751000-06:00,2020-02-25 21:00
1582686011801.0,6.937517940998077,-0.6724724769592285,7.26516318321228,2020-02-25 21:00:11.801000-06:00,2020-02-25 21:00
1582686011851.0,6.924103021621704,-0.6638484001159668,7.290076375007629,2020-02-25 21:00:11.851000-06:00,2020-02-25 21:00
1582686011901.0,6.9097301959991455,-0.6590576171875,7.311635971069336,2020-02-25 21:00:11.901000-06:00,2020-02-25 21:00
1582686011951.0,6.894877910614014,-0.681096076965332,7.226356029510498,2020-02-25 21:00:11.951000-06:00,2020-02-25 21:00
1582686012001.0,6.883152484893799,-0.6031036376953125,7.3832244873046875,2020-02-25 21:00:12.001000-06:00,2020-02-25 21:00
1582686012051.0,6.944225311279297,-0.7093629837036133,7.305886268615723,2020-02-25 21:00:12.051000-06:00,2020-02-25 21:00
1582686012101.0,6.808879375457764,-0.596894383430481,7.317744731903076,2020-02-25 21:00:12.101000-06:00,2020-02-25 21:00
1582686012151.0,6.896554708480835,-0.6669628620147705,7.323134422302246,2020-02-25 21:00:12.151000-06:00,2020-02-25 21:00
1582686012201.0,6.862538814544678,-0.6854081153869629,7.349365234375,2020-02-25 21:00:12.201000-06:00,2020-02-25 21:00
1582686012251.0,6.83618825674057,-0.6909174919128418,7.357629776000977,2020-02-25 21:00:12.251000-06:00,2020-02-25 21:00
1582686012301.0,6.839661538600922,-0.6182143688201904,7.392244815826416,2020-02-25 21:00:12.301000-06:00,2020-02-25 21:00
1582686012351.0,6.823469400405884,-0.5903638005256653,7.379531145095825,2020-02-25 21:00:12.351000-06:00,2020-02-25 21:00
1582686012401.0,6.811035603284836,-0.6154594421386719,7.376793384552002,2020-02-25 21:00:12.401000-06:00,2020-02-25 21:00
1582686012451.0,6.8074421882629395,-0.6250415,7.463031530380249,2020-02-25 21:00:12.451000-06:00,2020-02-25 21:00
1582686012501.0,6.805446147918701,-0.687438577413559,7.308008193969727,2020-02-25 21:00:12.501000-06:00,2020-02-25 21:00
1582686012551.0,6.8397815227508545,-0.5244302749633789,7.509743690490723,2020-02-25 21:00:12.551000-06:00,2020-02-25 21:00
1582686012601.0,6.834990501403809,-0.5986919403076172,7.429494142532349,2020-02-25 21:00:12.601000-06:00,2020-02-25 21:00
1582686012651.0,6.914646148681641,-0.40472888946533203,7.6238555908203125,2020-02-25 21:00:12.651000-06:00,2020-02-25 21:00
1582686012701.0,7.091324806213379,-0.2930617332458496,7.8958892822265625,2020-02-25 21:00:12.701000-06:00,2020-02-25 21:00
1582686012751.0,7.620311737060547,-0.20015954971313477,8.707473754882812,2020-02-25 21:00:12.751000-06:00,2020-02-25 21:00
1582686012801.0,7.172077178955078,-0.09883928298950195,9.073417663574219,2020-02-25 21:00:12.801000-06:00,2020-02-25 21:00
1582686012851.0,6.723840713500977,0.0024809837341308594,9.439361572265625,2020-02-25 21:00:12.851000-06:00,2020-02-25 21:00
1582686012901.0,6.275606155395508,0.10380125045776367,9.805305480957031,2020-02-25 21:00:12.901000-06:00,2020-02-25 21:00
1582686012951.0,5.827369689941406,0.20512151718139648,10.171249389648438,2020-02-25 21:00:12.951000-06:00,2020-02-25 21:00
1582686013001.0,5.267478942871094,0.351318359375,10.499491691589355,2020-02-25 21:00:13.001000-06:00,2020-02-25 21:00
1582686013051.0,3.4864501953125,0.9815998077392578,10.364261627197266,2020-02-25 21:00:13.051000-06:00,2020-02-25 21:00
1582686013101.0,2.25897216796875,1.3211402893066406,9.965238571166992,2020-02-25 21:00:13.101000-06:00,2020-02-25 21:00
1582686013151.0,0.914031982421875,1.4974365234375,9.649369239807129,2020-02-25 21:00:13.151000-06:00,2020-02-25 21:00
1582686013201.0,-0.11548995971679688,0.48406982421875,9.480037689208984,2020-02-25 21:00:13.201000-06:00,2020-02-25 21:00
1582686013251.0,-0.8457183837890625,-0.3310546875,8.795822143554688,2020-02-25 21:00:13.251000-06:00,2020-02-25 21:00
1582686013301.0,-1.9710617065429688,-0.7932510375976562,7.579948425292969,2020-02-25 21:00:13.301000-06:00,2020-02-25 21:00
1582686013351.0,-3.2175674438476562,-1.8699836730957031,6.2046661376953125,2020-02-25 21:00:13.351000-06:00,2020-02-25 21:00
1582686013401.0,-4.7349700927734375,-2.4141693115234375,4.496940612792969,2020-02-25 21:00:13.401000-06:00,2020-02-25 21:00
1582686013451.0,-6.078601837158203,-2.7742652893066406,2.9075660705566406,2020-02-25 21:00:13.451000-06:00,2020-02-25 21:00
1582686013501.0,-7.017030715942383,-3.312215805053711,2.2566909790039062,2020-02-25 21:00:13.501000-06:00,2020-02-25 21:00
1582686013551.0,-7.421083450317383,-3.439995765686035,1.9583168029785156,2020-02-25 21:00:13.551000-06:00,2020-02-25 21:00
1582686013601.0,-7.767606735229492,-3.266997814178467,2.426410675048828,2020-02-25 21:00:13.601000-06:00,2020-02-25 21:00
1582686013651.0,-8.22623348236084,-3.3713455200195312,2.8436737060546875,2020-02-25 21:00:13.651000-06:00,2020-02-25 21:00
1582686013701.0,-8.37944221496582,-3.515700340270996,3.1448676586151123,2020-02-25 21:00:13.701000-06:00,2020-02-25 21:00
1582686013751.0,-8.762306213378906,-3.2537994384765625,3.138774871826172,2020-02-25 21:00:13.751000-06:00,2020-02-25 21:00
1582686013801.0,-9.42670750617981,-2.1903915405273438,2.6710205078125,2020-02-25 21:00:13.801000-06:00,2020-02-25 21:00
1582686013851.0,-9.425771713256836,-3.0270328521728516,2.3623886108398438,2020-02-25 21:00:13.851000-06:00,2020-02-25 21:00
1582686013901.0,-9.88105583190918,-2.6315135955810547,1.8086662292480469,2020-02-25 21:00:13.901000-06:00,2020-02-25 21:00
1582686013951.0,-9.685766220092773,-2.4240856170654297,1.0497398376464844,2020-02-25 21:00:13.951000-06:00,2020-02-25 21:00
1582686014001.0,-9.329054594039917,-2.1283950805664062,0.5098705291748047,2020-02-25 21:00:14.001000-06:00,2020-02-25 21:00
1582686014051.0,-9.353392601013184,-1.322845458984375,0.2654228210449219,2020-02-25 21:00:14.051000-06:00,2020-02-25 21:00
1582686014101.0,-9.571953773498535,-0.804835319519043,0.06603264808654785,2020-02-25 21:00:14.101000-06:00,2020-02-25 21:00
1582686014151.0,-9.767627716064453,-0.6992411613464355,0.013058662414550781,2020-02-25 21:00:14.151000-06:00,2020-02-25 21:00
1582686014201.0,-10.101516723632812,-0.7119588851928711,-0.1747875213623047,2020-02-25 21:00:14.201000-06:00,2020-02-25 21:00
1582686014251.0,-9.962985515594482,-0.5370140075683594,0.005274534225463867,2020-02-25 21:00:14.251000-06:00,2020-02-25 21:00
1582686014301.0,-9.911931037902832,-0.18799495697021484,-0.07766914367675781,2020-02-25 21:00:14.301000-06:00,2020-02-25 21:00
1582686014351.0,-9.807785987854004,-0.32530975341796875,-0.35743045806884766,2020-02-25 21:00:14.351000-06:00,2020-02-25 21:00
1582686014401.0,-9.618836879730225,-0.3863239288330078,-0.5910258293151855,2020-02-25 21:00:14.401000-06:00,2020-02-25 21:00
1582686014451.0,-9.710093021392822,-0.24307870864868164,-0.6781666278839111,2020-02-25 21:00:14.451000-06:00,2020-02-25 21:00
1582686014501.0,-9.65398907661438,-0.2136998176574707,-0.661684513092041,2020-02-25 21:00:14.501000-06:00,2020-02-25 21:00
1582686014551.0,-9.707989692687988,-0.1205282211303711,-0.5756292343139648,2020-02-25 21:00:14.551000-06:00,2020-02-25 21:00
1582686014601.0,-9.824930191040039,-0.1067967414855957,-0.4638962745666504,2020-02-25 21:00:14.601000-06:00,2020-02-25 21:00
1582686014651.0,-9.586811780929565,-0.23637104034423828,-0.3239107131958008,2020-02-25 21:00:14.651000-06:00,2020-02-25 21:00
1582686014701.0,-9.596338272094727,-0.4800224304199219,-0.1125984787940979,2020-02-25 21:00:14.701000-06:00,2020-02-25 21:00
1582686014751.0,-10.117401123046875,-0.9504127502441406,-0.07431411743164062,2020-02-25 21:00:14.751000-06:00,2020-02-25 21:00
1582686014801.0,-11.299179077148438,-1.3207855224609375,0.48053741455078125,2020-02-25 21:00:14.801000-06:00,2020-02-25 21:00
1582686014851.0,-9.041027069091797,-0.14183712005615234,0.14978885650634766,2020-02-25 21:00:14.851000-06:00,2020-02-25 21:00
1582686014901.0,-9.843584060668945,0.045874595642089844,0.048526763916015625,2020-02-25 21:00:14.901000-06:00,2020-02-25 21:00
1582686014951.0,-9.572921752929688,-0.21541595458984375,-0.13045883178710938,2020-02-25 21:00:14.951000-06:00,2020-02-25 21:00
1582686015001.0,-9.980205535888672,-0.4127624034881592,-0.6773004531860352,2020-02-25 21:00:15.001000-06:00,2020-02-25 21:00
1582686015051.0,-9.722385883331299,-0.44527244567871094,-0.5358772277832031,2020-02-25 21:00:15.051000-06:00,2020-02-25 21:00
1582686015101.0,-9.642369270324707,-0.3636035919189453,-0.5923857688903809,2020-02-25 21:00:15.101000-06:00,2020-02-25 21:00
1582686015151.0,-9.79832410812378,-0.0989990234375,-0.49309635162353516,2020-02-25 21:00:15.151000-06:00,2020-02-25 21:00
1582686015201.0,-9.799736022949219,-0.290283203125,-0.36251354217529297,2020-02-25 21:00:15.201000-06:00,2020-02-25 21:00
1582686015251.0,-9.587677001953125,-0.8030815124511719,-0.4679107666015625,2020-02-25 21:00:15.251000-06:00,2020-02-25 21:00
1582686015301.0,-9.675319910049438,-0.9330525398254395,-0.7841892242431641,2020-02-25 21:00:15.301000-06:00,2020-02-25 21:00
1582686015351.0,-9.679137706756592,-0.8696169853210449,-1.0062459707260132,2020-02-25 21:00:15.351000-06:00,2020-02-25 21:00
1582686015401.0,-9.661771297454834,-0.9828453063964844,-1.026787281036377,2020-02-25 21:00:15.401000-06:00,2020-02-25 21:00
1582686015451.0,-9.561838150024414,-1.3515911102294922,-0.9358221292495728,2020-02-25 21:00:15.451000-06:00,2020-02-25 21:00
1582686015501.0,-9.486200094223022,-1.8046627044677734,-0.955045223236084,2020-02-25 21:00:15.501000-06:00,2020-02-25 21:00
1582686015551.0,-9.423804759979248,-2.0150108337402344,-0.890477180480957,2020-02-25 21:00:15.551000-06:00,2020-02-25 21:00
1582686015601.0,-9.396019577980042,-1.700399398803711,-0.9573345184326172,2020-02-25 21:00:15.601000-06:00,2020-02-25 21:00
1582686015651.0,-9.412764549255371,-1.329099178314209,-1.1223278045654297,2020-02-25 21:00:15.651000-06:00,2020-02-25 21:00
1582686015701.0,-9.342618942260742,-1.294790267944336,-1.363626480102539,2020-02-25 21:00:15.701000-06:00,2020-02-25 21:00
1582686015751.0,-9.220189571380615,-1.4807872772216797,-1.8253917694091797,2020-02-25 21:00:15.751000-06:00,2020-02-25 21:00
1582686015801.0,-9.088678359985352,-1.8458433151245117,-2.225208282470703,2020-02-25 21:00:15.801000-06:00,2020-02-25 21:00
1582686015851.0,-8.81549072265625,-2.0531067848205566,-2.5891189575195312,2020-02-25 21:00:15.851000-06:00,2020-02-25 21:00
1582686015901.0,-8.651599884033203,-2.1980648040771484,-3.230846405029297,2020-02-25 21:00:15.901000-06:00,2020-02-25 21:00
1582686015951.0,-8.463346481323242,-2.5006790161132812,-3.8800735473632812,2020-02-25 21:00:15.951000-06:00,2020-02-25 21:00
1582686016001.0,-8.147578239440918,-2.738229751586914,-4.319454193115234,2020-02-25 21:00:16.001000-06:00,2020-02-25 21:00
1582686016051.0,-7.936779141426086,-2.9839210510253906,-5.087030410766602,2020-02-25 21:00:16.051000-06:00,2020-02-25 21:00
1582686016101.0,-7.909284591674805,-3.2934012413024902,-5.416376113891602,2020-02-25 21:00:16.101000-06:00,2020-02-25 21:00
1582686016151.0,-7.470746040344238,-3.375432014465332,-5.480396747589111,2020-02-25 21:00:16.151000-06:00,2020-02-25 21:00
1582686016201.0,-7.61639404296875,-3.6658592224121094,-5.386364936828613,2020-02-25 21:00:16.201000-06:00,2020-02-25 21:00
1582686016251.0,-7.317893028259277,-4.361782073974609,-5.109546661376953,2020-02-25 21:00:16.251000-06:00,2020-02-25 21:00
1582686016301.0,-7.200046539306641,-5.236549377441406,-4.468437194824219,2020-02-25 21:00:16.301000-06:00,2020-02-25 21:00
1582686016351.0,-7.017246246337891,-5.923851013183594,-2.7840118408203125,2020-02-25 21:00:16.351000-06:00,2020-02-25 21:00
1582686016401.0,-6.893635272979736,-6.484157562255859,-1.2013092041015625,2020-02-25 21:00:16.401000-06:00,2020-02-25 21:00
1582686016451.0,-6.921016216278076,-7.038356304168701,-0.00666046142578125,2020-02-25 21:00:16.451000-06:00,2020-02-25 21:00
1582686016501.0,-7.006089687347412,-6.974565505981445,0.7365217208862305,2020-02-25 21:00:16.501000-06:00,2020-02-25 21:00
1582686016551.0,-7.156370162963867,-6.545440673828125,0.9142551422119141,2020-02-25 21:00:16.551000-06:00,2020-02-25 21:00
1582686016601.0,-7.495867729187012,-5.804437637329102,0.8169794082641602,2020-02-25 21:00:16.601000-06:00,2020-02-25 21:00
1582686016651.0,-7.659095570445061,-5.493444442749023,1.0601730346679688,2020-02-25 21:00:16.651000-06:00,2020-02-25 21:00
1582686016701.0,-7.648103713989258,-5.62385106086731,2.0389671325683594,2020-02-25 21:00:16.701000-06:00,2020-02-25 21:00
1582686016751.0,-7.5819478034973145,-5.548332214355469,2.7093162536621094,2020-02-25 21:00:16.751000-06:00,2020-02-25 21:00
1582686016801.0,-7.654748916625977,-5.201711654663086,3.216879904270172,2020-02-25 21:00:16.801000-06:00,2020-02-25 21:00
1582686016851.0,-7.749459385871887,-4.890485763549805,3.192464828491211,2020-02-25 21:00:16.851000-06:00,2020-02-25 21:00
1582686016901.0,-7.763779640197754,-4.994663238525391,3.069957733154297,2020-02-25 21:00:16.901000-06:00,2020-02-25 21:00
1582686016951.0,-7.643131256103516,-5.158885955810547,2.6347084045410156,2020-02-25 21:00:16.951000-06:00,2020-02-25 21:00
1582686017001.0,-7.8481669425964355,-4.8902976512908936,2.043804168701172,2020-02-25 21:00:17.001000-06:00,2020-02-25 21:00
1582686017051.0,-7.935916721820831,-4.930337905883789,1.641221046447754,2020-02-25 21:00:17.051000-06:00,2020-02-25 21:00
1582686017101.0,-7.955474615097046,-4.8277997970581055,1.8091583251953125,2020-02-25 21:00:17.101000-06:00,2020-02-25 21:00
1582686017151.0,-7.990636348724365,-4.733010292053223,2.1510000228881836,2020-02-25 21:00:17.151000-06:00,2020-02-25 21:00
1582686017201.0,-7.910608291625977,-4.878294944763184,2.387180805206299,2020-02-25 21:00:17.201000-06:00,2020-02-25 21:00
1582686017251.0,-7.821010589599609,-4.968033790588379,2.478109359741211,2020-02-25 21:00:17.251000-06:00,2020-02-25 21:00
1582686017301.0,-7.996534585952759,-5.059564590454102,2.1928634643554688,2020-02-25 21:00:17.301000-06:00,2020-02-25 21:00
1582686017351.0,-8.04387903213501,-4.937496900558472,1.8172316551208496,2020-02-25 21:00:17.351000-06:00,2020-02-25 21:00
1582686017401.0,-7.967974066734314,-4.998291015625,1.9327168464660645,2020-02-25 21:00:17.401000-06:00,2020-02-25 21:00
1582686017451.0,-7.932328224182129,-5.193114757537842,2.0253162384033203,2020-02-25 21:00:17.451000-06:00,2020-02-25 21:00
1582686017501.0,-7.842203974723816,-5.281165599822998,2.160226821899414,2020-02-25 21:00:17.501000-06:00,2020-02-25 21:00
1582686017551.0,-7.826954260468483,-5.206392765045166,2.378557562828064,2020-02-25 21:00:17.551000-06:00,2020-02-25 21:00
1582686017601.0,-7.82426118850708,-5.263023853302002,2.3983755111694336,2020-02-25 21:00:17.601000-06:00,2020-02-25 21:00
1582686017651.0,-7.788065612316132,-5.145272254943848,2.4306325912475586,2020-02-25 21:00:17.651000-06:00,2020-02-25 21:00
1582686017701.0,-7.805073261260986,-5.076159477233887,2.5785083770751953,2020-02-25 21:00:17.701000-06:00,2020-02-25 21:00
1582686017751.0,-7.869841575622559,-5.104461669921875,2.7759814262390137,2020-02-25 21:00:17.751000-06:00,2020-02-25 21:00
1582686017801.0,-7.765557765960693,-5.001072883605957,2.8944135308265686,2020-02-25 21:00:17.801000-06:00,2020-02-25 21:00
1582686017851.0,-7.708300352096558,-5.159511566162109,2.9016942977905273,2020-02-25 21:00:17.851000-06:00,2020-02-25 21:00
1582686017901.0,-7.765665292739868,-4.989899158477783,2.957641124725342,2020-02-25 21:00:17.901000-06:00,2020-02-25 21:00
1582686017951.0,-7.808116912841797,-4.908082962036133,2.908082962036133,2020-02-25 21:00:17.951000-06:00,2020-02-25 21:00
1582686018001.0,-7.7870577573776245,-4.7635321617126465,3.1135740280151367,2020-02-25 21:00:18.001000-06:00,2020-02-25 21:00
1582686018051.0,-7.797264337539673,-4.680408954620361,3.375883102416992,2020-02-25 21:00:18.051000-06:00,2020-02-25 21:00
1582686018101.0,-7.740341782569885,-4.6208648681640625,3.7308082580566406,2020-02-25 21:00:18.101000-06:00,2020-02-25 21:00
1582686018151.0,-7.72117555141449,-4.47146463394165,3.9001853466033936,2020-02-25 21:00:18.151000-06:00,2020-02-25 21:00
1582686018201.0,-7.730841040611267,-4.337040901184082,3.881237030029297,2020-02-25 21:00:18.201000-06:00,2020-02-25 21:00
1582686018251.0,-7.757067680358887,-4.112476348876953,4.117282792925835,2020-02-25 21:00:18.251000-06:00,2020-02-25 21:00
1582686018301.0,-7.930900573730469,-4.006136894226074,4.148786544799805,2020-02-25 21:00:18.301000-06:00,2020-02-25 21:00
1582686018351.0,-7.83750057220459,-3.7779345512390137,4.3927321434021,2020-02-25 21:00:18.351000-06:00,2020-02-25 21:00
1582686018401.0,-7.799249649047852,-3.880781888961792,4.252225875854492,2020-02-25 21:00:18.401000-06:00,2020-02-25 21:00
1582686018451.0,-7.808167994022369,-3.872727394104004,4.033821105957031,2020-02-25 21:00:18.451000-06:00,2020-02-25 21:00
1582686018501.0,-7.8106231689453125,-4.003842353820801,3.8961868286132812,2020-02-25 21:00:18.501000-06:00,2020-02-25 21:00
1582686018551.0,-7.71102237701416,-4.032405853271484,4.95281982421875,2020-02-25 21:00:18.551000-06:00,2020-02-25 21:00
1582686018601.0,-7.745108604431152,-3.4670562744140625,5.160465240478516,2020-02-25 21:00:18.601000-06:00,2020-02-25 21:00
1582686018651.0,-7.902284383773804,-3.8730316162109375,4.275650978088379,2020-02-25 21:00:18.651000-06:00,2020-02-25 21:00
1582686018701.0,-7.9695329666137695,-3.3538742065429688,4.231901168823242,2020-02-25 21:00:18.701000-06:00,2020-02-25 21:00
1582686018751.0,-8.053332328796387,-3.720958709716797,4.522698402404785,2020-02-25 21:00:18.751000-06:00,2020-02-25 21:00
1582686018801.0,-7.855485916137695,-3.3305511474609375,4.723147392272949,2020-02-25 21:00:18.801000-06:00,2020-02-25 21:00
1582686018851.0,-8.042397499084473,-2.43780517578125,4.794278144836426,2020-02-25 21:00:18.851000-06:00,2020-02-25 21:00
1582686018901.0,-8.10430908203125,-1.2768096923828125,5.000467300415039,2020-02-25 21:00:18.901000-06:00,2020-02-25 21:00
1582686018951.0,-8.243103981018066,-0.1826934814453125,5.332468032836914,2020-02-25 21:00:18.951000-06:00,2020-02-25 21:00
1582686019001.0,-8.029297351837158,0.4853096008300781,5.5309038162231445,2020-02-25 21:00:19.001000-06:00,2020-02-25 21:00
1582686019051.0,-7.999018669128418,1.479048728942871,5.651937484741211,2020-02-25 21:00:19.051000-06:00,2020-02-25 21:00
1582686019101.0,-8.219847679138184,1.6440162658691406,5.473720550537109,2020-02-25 21:00:19.101000-06:00,2020-02-25 21:00
1582686019151.0,-8.14888447523117,0.8855066299438477,5.339638710021973,2020-02-25 21:00:19.151000-06:00,2020-02-25 21:00
1582686019201.0,-8.16608214378357,0.7374629974365234,5.265161991119385,2020-02-25 21:00:19.201000-06:00,2020-02-25 21:00
1582686019251.0,-8.205267429351807,1.196380615234375,5.223923206329346,2020-02-25 21:00:19.251000-06:00,2020-02-25 21:00
1582686019301.0,-8.156755924224854,1.801600456237793,5.31467342376709,2020-02-25 21:00:19.301000-06:00,2020-02-25 21:00
1582686019351.0,-8.057080805301666,1.89548921585083,5.236547470092773,2020-02-25 21:00:19.351000-06:00,2020-02-25 21:00
1582686019401.0,-8.046589851379395,1.7658109664916992,5.458783149719238,2020-02-25 21:00:19.401000-06:00,2020-02-25 21:00
1582686019451.0,-7.900404930114746,1.5368537902832031,5.629492282867432,2020-02-25 21:00:19.451000-06:00,2020-02-25 21:00
1582686019501.0,-7.975166857242584,1.2732162475585938,5.728076934814453,2020-02-25 21:00:19.501000-06:00,2020-02-25 21:00
1582686019551.0,-7.971930980682373,1.0548114776611328,6.107095718383789,2020-02-25 21:00:19.551000-06:00,2020-02-25 21:00
1582686019601.0,-7.893238544464111,1.441688060760498,6.079803466796875,2020-02-25 21:00:19.601000-06:00,2020-02-25 21:00
1582686019651.0,-7.8085020780563354,1.4855594635009766,5.932476997375488,2020-02-25 21:00:19.651000-06:00,2020-02-25 21:00
1582686019701.0,-7.838679790496826,1.1479301452636719,5.793503761291504,2020-02-25 21:00:19.701000-06:00,2020-02-25 21:00
1582686019751.0,-7.9147937297821045,0.915037989616394,5.8648881912231445,2020-02-25 21:00:19.751000-06:00,2020-02-25 21:00
1582686019801.0,-7.885649681091309,0.9066200256347656,5.975089073181152,2020-02-25 21:00:19.801000-06:00,2020-02-25 21:00
1582686019851.0,-7.8177657425403595,0.6195898056030273,6.1146623976528645,2020-02-25 21:00:19.851000-06:00,2020-02-25 21:00
1582686019901.0,-7.814763069152832,0.7201900482177734,6.118354320526123,2020-02-25 21:00:19.901000-06:00,2020-02-25 21:00
1582686019951.0,-7.716718673706055,1.0106096267700195,6.165925979614258,2020-02-25 21:00:19.951000-06:00,2020-02-25 21:00
1582686020001.0,-7.589631080627441,0.8225171566009521,6.230905532836914,2020-02-25 21:00:20.001000-06:00,2020-02-25 21:00
1582686020051.0,-7.762327194213867,0.7691311836242676,6.109315395355225,2020-02-25 21:00:20.051000-06:00,2020-02-25 21:00
1582686020101.0,-7.832103252410889,0.8450508117675781,6.015131831169128,2020-02-25 21:00:20.101000-06:00,2020-02-25 21:00
1582686020151.0,-7.7264732122421265,0.9506545066833496,5.998739004135132,2020-02-25 21:00:20.151000-06:00,2020-02-25 21:00
1582686020201.0,-7.7059940388426185,0.8872489929199219,6.051921963691711,2020-02-25 21:00:20.201000-06:00,2020-02-25 21:00
1582686020251.0,-7.6927490234375,0.5640449523925781,6.028595566749573,2020-02-25 21:00:20.251000-06:00,2020-02-25 21:00
1582686020301.0,-7.557794570922852,1.080268144607544,6.023181915283203,2020-02-25 21:00:20.301000-06:00,2020-02-25 21:00
1582686020351.0,-7.72475528717041,1.1472015380859375,6.303013801574707,2020-02-25 21:00:20.351000-06:00,2020-02-25 21:00
1582686020401.0,-7.539778292179108,1.1998915672302246,6.431731224060059,2020-02-25 21:00:20.401000-06:00,2020-02-25 21:00
1582686020451.0,-7.5414533615112305,1.121541976928711,6.338589668273926,2020-02-25 21:00:20.451000-06:00,2020-02-25 21:00
1582686020501.0,-7.505733966827393,0.7933826446533203,6.134583473205566,2020-02-25 21:00:20.501000-06:00,2020-02-25 21:00
1582686020551.0,-7.547595381736755,1.0050621032714844,6.2242112159729,2020-02-25 21:00:20.551000-06:00,2020-02-25 21:00
1582686020601.0,-7.5308696031570435,1.5140409469604492,6.33948278427124,2020-02-25 21:00:20.601000-06:00,2020-02-25 21:00
1582686020651.0,-7.513802766799927,1.551412582397461,6.266853332519531,2020-02-25 21:00:20.651000-06:00,2020-02-25 21:00
1582686020701.0,-7.449518442153931,1.1059761047363281,6.326733112335205,2020-02-25 21:00:20.701000-06:00,2020-02-25 21:00
1582686020751.0,-7.396001100540161,1.2035503387451172,6.425295829772949,2020-02-25 21:00:20.751000-06:00,2020-02-25 21:00
1582686020801.0,-7.4366002678871155,1.6594314575195312,6.537989616394043,2020-02-25 21:00:20.801000-06:00,2020-02-25 21:00
1582686020851.0,-7.43029260635376,1.4951152801513672,6.387610912322998,2020-02-25 21:00:20.851000-06:00,2020-02-25 21:00
1582686020901.0,-7.324919700622559,1.158189058303833,6.312537908554077,2020-02-25 21:00:20.901000-06:00,2020-02-25 21:00
1582686020951.0,-7.46828031539917,1.1459274291992188,6.287720203399658,2020-02-25 21:00:20.951000-06:00,2020-02-25 21:00
1582686021001.0,-7.395436406135559,1.5415115356445312,6.424432754516602,2020-02-25 21:00:21.001000-06:00,2020-02-25 21:00
1582686021051.0,-7.411908149719238,1.6436939239501953,6.641117572784424,2020-02-25 21:00:21.051000-06:00,2020-02-25 21:00
1582686021101.0,-7.31545090675354,1.4588041305541992,6.517847061157227,2020-02-25 21:00:21.101000-06:00,2020-02-25 21:00
1582686021151.0,-7.268863677978516,1.6359691619873047,6.337185859680176,2020-02-25 21:00:21.151000-06:00,2020-02-25 21:00
1582686021201.0,-7.397129058837891,2.0168023109436035,6.5816004276275635,2020-02-25 21:00:21.201000-06:00,2020-02-25 21:00
1582686021251.0,-7.293808937072754,1.8791999816894531,6.571266174316406,2020-02-25 21:00:21.251000-06:00,2020-02-25 21:00
1582686021301.0,-7.393339678645134,1.3416709899902344,6.20145845413208,2020-02-25 21:00:21.301000-06:00,2020-02-25 21:00
1582686021351.0,-7.3952489495277405,1.4462013244628906,6.103058338165283,2020-02-25 21:00:21.351000-06:00,2020-02-25 21:00
1582686021401.0,-7.3879311084747314,1.6665565967559814,6.216664791107178,2020-02-25 21:00:21.401000-06:00,2020-02-25 21:00
1582686021451.0,-7.341116905212402,1.7136154174804688,6.322940826416016,2020-02-25 21:00:21.451000-06:00,2020-02-25 21:00
1582686021501.0,-7.265453100204468,1.6937270164489746,6.603470802307129,2020-02-25 21:00:21.501000-06:00,2020-02-25 21:00
1582686021551.0,-7.239832878112793,1.8072166442871094,6.749887943267822,2020-02-25 21:00:21.551000-06:00,2020-02-25 21:00
1582686021601.0,-7.312909364700317,1.8978519439697266,6.66639518737793,2020-02-25 21:00:21.601000-06:00,2020-02-25 21:00
1582686021651.0,-7.283526062965393,1.6604328155517578,6.5914154052734375,2020-02-25 21:00:21.651000-06:00,2020-02-25 21:00
1582686021701.0,-7.274111419916153,1.3107986450195312,6.406416893005371,2020-02-25 21:00:21.701000-06:00,2020-02-25 21:00
1582686021751.0,-7.27224063873291,0.7664947509765625,6.50244140625,2020-02-25 21:00:21.751000-06:00,2020-02-25 21:00
1582686021801.0,-7.304259806871414,1.2728157043457031,6.561414361000061,2020-02-25 21:00:21.801000-06:00,2020-02-25 21:00
1582686021851.0,-7.293405532836914,1.1996397972106934,6.560944676399231,2020-02-25 21:00:21.851000-06:00,2020-02-25 21:00
1582686021901.0,-7.240100860595703,1.1348800659179688,6.538229376077652,2020-02-25 21:00:21.901000-06:00,2020-02-25 21:00
1582686021951.0,-7.441150665283203,1.3926255702972412,6.534766639582813,2020-02-25 21:00:21.951000-06:00,2020-02-25 21:00
1582686022001.0,-7.392350673675537,1.4152069091796875,6.529028415679932,2020-02-25 21:00:22.001000-06:00,2020-02-25 21:00
1582686022051.0,-7.329366683959961,1.098480224609375,6.461395263671875,2020-02-25 21:00:22.051000-06:00,2020-02-25 21:00
1582686022101.0,-7.368106126785278,0.8400177955627441,6.296031475067139,2020-02-25 21:00:22.101000-06:00,2020-02-25 21:00
1582686022151.0,-7.407735899090767,0.9053764343261719,6.379266262054443,2020-02-25 21:00:22.151000-06:00,2020-02-25 21:00
1582686022201.0,-7.411209769546986,1.1809730529785156,6.449737548828125,2020-02-25 21:00:22.201000-06:00,2020-02-25 21:00
1582686022251.0,-7.40052604675293,1.2388710975646973,6.511354446411133,2020-02-25 21:00:22.251000-06:00,2020-02-25 21:00
1582686022301.0,-7.3114845752716064,1.1310749053955078,6.55165958404541,2020-02-25 21:00:22.301000-06:00,2020-02-25 21:00
1582686022351.0,-7.3559980392456055,1.2257089614868164,6.442347764968872,2020-02-25 21:00:22.351000-06:00,2020-02-25 21:00
1582686022401.0,-7.413727283477783,1.3179330825805664,6.509814262390137,2020-02-25 21:00:22.401000-06:00,2020-02-25 21:00
1582686022451.0,-7.351264238357544,1.1349539756774902,6.612641334533691,2020-02-25 21:00:22.451000-06:00,2020-02-25 21:00
1582686022501.0,-7.310590744018555,1.2361297607421875,6.400861740112305,2020-02-25 21:00:22.501000-06:00,2020-02-25 21:00
1582686022551.0,-7.388606429100037,1.7114067077636719,6.55346417427063,2020-02-25 21:00:22.551000-06:00,2020-02-25 21:00
1582686022601.0,-7.403984069824219,1.7118911743164062,6.500420570373535,2020-02-25 21:00:22.601000-06:00,2020-02-25 21:00
1582686022651.0,-7.321184396743774,1.3326778411865234,6.292854309082031,2020-02-25 21:00:22.651000-06:00,2020-02-25 21:00
1582686022701.0,-7.274203777313232,1.6618537902832031,6.101924896240234,2020-02-25 21:00:22.701000-06:00,2020-02-25 21:00
1582686022751.0,-7.371128082275391,2.563364028930664,6.663734436035156,2020-02-25 21:00:22.751000-06:00,2020-02-25 21:00
1582686022801.0,-7.331446528434753,2.7242050170898438,6.434331893920898,2020-02-25 21:00:22.801000-06:00,2020-02-25 21:00
1582686022851.0,-7.375222206115723,1.797088623046875,6.230700492858887,2020-02-25 21:00:22.851000-06:00,2020-02-25 21:00
1582686022901.0,-7.602167129516602,0.6775684356689453,6.329669952392578,2020-02-25 21:00:22.901000-06:00,2020-02-25 21:00
1582686022951.0,-7.689675807952881,0.4009990692138672,5.853603363037109,2020-02-25 21:00:22.951000-06:00,2020-02-25 21:00
1582686023001.0,-7.596567630767822,0.14492034912109375,6.008204460144043,2020-02-25 21:00:23.001000-06:00,2020-02-25 21:00
1582686023051.0,-7.659808158874512,0.46051788330078125,6.26753044128418,2020-02-25 21:00:23.051000-06:00,2020-02-25 21:00
1582686023101.0,-7.6045637130737305,0.7547512054443359,6.43355917930603,2020-02-25 21:00:23.101000-06:00,2020-02-25 21:00
1582686023151.0,-7.538214087486267,0.4405345916748047,6.453522682189941,2020-02-25 21:00:23.151000-06:00,2020-02-25 21:00
1582686023201.0,-7.517810344696045,-0.10050582885742188,6.356971740722656,2020-02-25 21:00:23.201000-06:00,2020-02-25 21:00
1582686023251.0,-7.45207342505455,-0.8175678253173828,5.843191146850586,2020-02-25 21:00:23.251000-06:00,2020-02-25 21:00
1582686023301.0,-7.455194711685181,-1.1772756576538086,6.1093034744262695,2020-02-25 21:00:23.301000-06:00,2020-02-25 21:00
1582686023351.0,-7.437380433082581,-0.9859318733215332,6.022586822509766,2020-02-25 21:00:23.351000-06:00,2020-02-25 21:00
1582686023401.0,-7.453659772872925,-0.9984340667724609,6.393476486206055,2020-02-25 21:00:23.401000-06:00,2020-02-25 21:00
1582686023451.0,-7.392877101898193,-0.7675971984863281,6.615110397338867,2020-02-25 21:00:23.451000-06:00,2020-02-25 21:00
1582686023501.0,-7.3149824142456055,-1.021484375,6.315265655517578,2020-02-25 21:00:23.501000-06:00,2020-02-25 21:00
1582686023551.0,-7.46974790096283,-0.7269163131713867,6.541379928588867,2020-02-25 21:00:23.551000-06:00,2020-02-25 21:00
1582686023601.0,-7.448749542236328,-0.4481010437011719,6.739629566669464,2020-02-25 21:00:23.601000-06:00,2020-02-25 21:00
1582686023651.0,-7.38240909576416,0.36716461181640625,6.743340969085693,2020-02-25 21:00:23.651000-06:00,2020-02-25 21:00
1582686023701.0,-7.25684666633606,1.6458053588867188,6.6281938552856445,2020-02-25 21:00:23.701000-06:00,2020-02-25 21:00
1582686023751.0,-7.209195137023926,2.171377182006836,6.433967590332031,2020-02-25 21:00:23.751000-06:00,2020-02-25 21:00
1582686023801.0,-7.36906623840332,2.441164016723633,6.247770309448242,2020-02-25 21:00:23.801000-06:00,2020-02-25 21:00
1582686023851.0,-7.51754093170166,2.1874465942382812,6.561027526855469,2020-02-25 21:00:23.851000-06:00,2020-02-25 21:00
1582686023901.0,-7.684181213378906,0.34497833251953125,6.873279094696045,2020-02-25 21:00:23.901000-06:00,2020-02-25 21:00
1582686023951.0,-7.322815418243408,-0.11730003356933594,6.959585189819336,2020-02-25 21:00:23.951000-06:00,2020-02-25 21:00
1582686024001.0,-7.236711502075195,-0.3984527587890625,6.758304595947266,2020-02-25 21:00:24.001000-06:00,2020-02-25 21:00
1582686024051.0,-7.337998390197754,-1.8460540771484375,5.8551788330078125,2020-02-25 21:00:24.051000-06:00,2020-02-25 21:00
1582686024101.0,-7.137173652648926,-4.2057952880859375,4.650066375732422,2020-02-25 21:00:24.101000-06:00,2020-02-25 21:00
1582686024151.0,-6.962968826293945,-5.446582794189453,3.806741714477539,2020-02-25 21:00:24.151000-06:00,2020-02-25 21:00
1582686024201.0,-7.096189022064209,-4.899402618408203,4.053487777709961,2020-02-25 21:00:24.201000-06:00,2020-02-25 21:00
1582686024251.0,-7.185264587402344,-4.658987522125244,4.366522789001465,2020-02-25 21:00:24.251000-06:00,2020-02-25 21:00
1582686024301.0,-7.0215559005737305,-4.72772216796875,4.532855033874512,2020-02-25 21:00:24.301000-06:00,2020-02-25 21:00
1582686024351.0,-6.883333921432495,-4.9255430698394775,4.463294982910156,2020-02-25 21:00:24.351000-06:00,2020-02-25 21:00
1582686024401.0,-6.878800392150879,-4.953481674194336,4.853519439697266,2020-02-25 21:00:24.401000-06:00,2020-02-25 21:00
1582686024451.0,-6.679200649261475,-5.424863338470459,4.010013580322266,2020-02-25 21:00:24.451000-06:00,2020-02-25 21:00
1582686024501.0,-6.751325607299805,-5.3632917404174805,4.711729668080807,2020-02-25 21:00:24.501000-06:00,2020-02-25 21:00
1582686024551.0,-6.2983551025390625,-5.623202323913574,4.706149339675903,2020-02-25 21:00:24.551000-06:00,2020-02-25 21:00
1582686024601.0,-6.46231746673584,-5.818511009216309,4.634609222412109,2020-02-25 21:00:24.601000-06:00,2020-02-25 21:00
1582686024651.0,-6.277251720428467,-5.908576965332031,4.190085411071777,2020-02-25 21:00:24.651000-06:00,2020-02-25 21:00
1582686024701.0,-6.330783843994141,-6.333139896392822,3.9959754943847656,2020-02-25 21:00:24.701000-06:00,2020-02-25 21:00
1582686024751.0,-6.444100379943848,-6.236719131469727,3.6920694410800934,2020-02-25 21:00:24.751000-06:00,2020-02-25 21:00
1582686024801.0,-6.567142486572266,-5.8549721240997314,3.7187538146972656,2020-02-25 21:00:24.801000-06:00,2020-02-25 21:00
1582686024851.0,-6.408315658569336,-5.834399223327637,4.000568389892578,2020-02-25 21:00:24.851000-06:00,2020-02-25 21:00
1582686024901.0,-6.274787902832031,-6.041250228881836,4.224623680114746,2020-02-25 21:00:24.901000-06:00,2020-02-25 21:00
1582686024951.0,-6.216538429260254,-6.165979385375977,4.405908584594727,2020-02-25 21:00:24.951000-06:00,2020-02-25 21:00
1582686025001.0,-6.334468841552734,-5.993377685546875,4.694807052612305,2020-02-25 21:00:25.001000-06:00,2020-02-25 21:00
1582686025051.0,-5.969627380371094,-5.7702956199646,4.308564186096191,2020-02-25 21:00:25.051000-06:00,2020-02-25 21:00
1582686025101.0,-6.479994297027588,-5.794218063354492,4.502110481262207,2020-02-25 21:00:25.101000-06:00,2020-02-25 21:00
1582686025151.0,-6.409379959106445,-5.681074142456055,4.327630043029785,2020-02-25 21:00:25.151000-06:00,2020-02-25 21:00
1582686025201.0,-6.60587215423584,-5.985487937927246,4.105140686035156,2020-02-25 21:00:25.201000-06:00,2020-02-25 21:00
1582686025251.0,-6.429736137390137,-5.889333724975586,3.6102097034454346,2020-02-25 21:00:25.251000-06:00,2020-02-25 21:00
1582686025301.0,-6.643710136413574,-6.096168518066406,3.658336639404297,2020-02-25 21:00:25.301000-06:00,2020-02-25 21:00
1582686025351.0,-6.520527601242065,-6.223445296287537,3.53350830078125,2020-02-25 21:00:25.351000-06:00,2020-02-25 21:00
1582686025401.0,-6.542093198746443,-6.179769515991211,3.707080841064453,2020-02-25 21:00:25.401000-06:00,2020-02-25 21:00
1582686025451.0,-6.551210880279541,-6.020697593688965,3.5254173278808594,2020-02-25 21:00:25.451000-06:00,2020-02-25 21:00
1582686025501.0,-6.65285587310791,-6.223197937011719,3.3272431045770645,2020-02-25 21:00:25.501000-06:00,2020-02-25 21:00
1582686025551.0,-6.788057088851929,-5.933477401733398,3.353412628173828,2020-02-25 21:00:25.551000-06:00,2020-02-25 21:00
1582686025601.0,-6.820807456970215,-5.623741149902344,3.573209285736084,2020-02-25 21:00:25.601000-06:00,2020-02-25 21:00
1582686025651.0,-6.701235234737396,-5.547451019287109,3.633544683456421,2020-02-25 21:00:25.651000-06:00,2020-02-25 21:00
1582686025701.0,-6.689718008041382,-6.109387159347534,3.587244987487793,2020-02-25 21:00:25.701000-06:00,2020-02-25 21:00
1582686025751.0,-6.668207168579102,-6.028879165649414,3.504582405090332,2020-02-25 21:00:25.751000-06:00,2020-02-25 21:00
1582686025801.0,-6.788475036621094,-5.706272125244141,3.7633609771728516,2020-02-25 21:00:25.801000-06:00,2020-02-25 21:00
1582686025851.0,-6.660734176635742,-6.22998046875,4.21796989440918,2020-02-25 21:00:25.851000-06:00,2020-02-25 21:00
1582686025901.0,-6.738478779792786,-5.315616607666016,4.501039505004883,2020-02-25 21:00:25.901000-06:00,2020-02-25 21:00
1582686025951.0,-6.76295280456543,-4.756639003753662,4.813544809818268,2020-02-25 21:00:25.951000-06:00,2020-02-25 21:00
1582686026001.0,-6.883392333984375,-4.71406364440918,4.820624828338623,2020-02-25 21:00:26.001000-06:00,2020-02-25 21:00
1582686026051.0,-6.94915771484375,-5.140144348144531,4.899190902709961,2020-02-25 21:00:26.051000-06:00,2020-02-25 21:00
1582686026101.0,-7.368312835693359,-4.743431091308594,4.551587104797363,2020-02-25 21:00:26.101000-06:00,2020-02-25 21:00
1582686026151.0,-6.8706865310668945,-4.822922229766846,4.325544357299805,2020-02-25 21:00:26.151000-06:00,2020-02-25 21:00
1582686026201.0,-7.04661750793457,-4.721969962120056,4.1171112060546875,2020-02-25 21:00:26.201000-06:00,2020-02-25 21:00
1582686026251.0,-7.395216703414917,-4.71444034576416,3.8164329528808594,2020-02-25 21:00:26.251000-06:00,2020-02-25 21:00
1582686026301.0,-7.357540130615234,-4.920581817626953,3.6671953797340393,2020-02-25 21:00:26.301000-06:00,2020-02-25 21:00
1582686026351.0,-7.3583269119262695,-5.515867710113525,3.6786813735961914,2020-02-25 21:00:26.351000-06:00,2020-02-25 21:00
1582686026401.0,-7.105695724487305,-5.489866256713867,3.954608917236328,2020-02-25 21:00:26.401000-06:00,2020-02-25 21:00
1582686026451.0,-6.730979919433594,-5.082197189331055,4.450878143310547,2020-02-25 21:00:26.451000-06:00,2020-02-25 21:00
1582686026501.0,-6.9520769119262695,-5.449222564697266,4.302778363227844,2020-02-25 21:00:26.501000-06:00,2020-02-25 21:00
1582686026551.0,-7.1233978271484375,-4.891569137573242,4.347940444946289,2020-02-25 21:00:26.551000-06:00,2020-02-25 21:00
1582686026601.0,-6.952875137329102,-4.7900543212890625,4.770233154296875,2020-02-25 21:00:26.601000-06:00,2020-02-25 21:00
1582686026651.0,-6.838578224182129,-4.347572326660156,5.301294326782227,2020-02-25 21:00:26.651000-06:00,2020-02-25 21:00
1582686026701.0,-6.720654487609863,-3.74835205078125,5.445365905761719,2020-02-25 21:00:26.701000-06:00,2020-02-25 21:00
1582686026751.0,-6.66510009765625,-3.4413375854492188,6.055973052978516,2020-02-25 21:00:26.751000-06:00,2020-02-25 21:00
1582686026801.0,-7.406513214111328,-3.60888671875,5.986736297607422,2020-02-25 21:00:26.801000-06:00,2020-02-25 21:00
1582686026851.0,-6.58176326751709,-2.651508331298828,6.617870330810547,2020-02-25 21:00:26.851000-06:00,2020-02-25 21:00
1582686026901.0,-6.384981155395508,-2.1329193115234375,7.143798828125,2020-02-25 21:00:26.901000-06:00,2020-02-25 21:00
1582686026951.0,-6.7596435546875,-4.1602935791015625,6.6213531494140625,2020-02-25 21:00:26.951000-06:00,2020-02-25 21:00
1582686027001.0,-9.270751953125,-6.736602783203125,9.05194091796875,2020-02-25 21:00:27.001000-06:00,2020-02-25 21:00
1582686027051.0,-6.358634948730469,-8.881195068359375,4.1410675048828125,2020-02-25 21:00:27.051000-06:00,2020-02-25 21:00
1582686027101.0,-6.6343994140625,-10.2177734375,1.083160400390625,2020-02-25 21:00:27.101000-06:00,2020-02-25 21:00
1582686027151.0,-4.1529541015625,-13.549560546875,7.0858154296875,2020-02-25 21:00:27.151000-06:00,2020-02-25 21:00
1582686027201.0,-0.4633941650390625,-6.994596481323242,-1.1137809753417969,2020-02-25 21:00:27.201000-06:00,2020-02-25 21:00
1582686027251.0,1.1063003540039062,-7.1764678955078125,-1.57391357421875,2020-02-25 21:00:27.251000-06:00,2020-02-25 21:00
1582686027301.0,2.3341064453125,-9.962982177734375,0.37082672119140625,2020-02-25 21:00:27.301000-06:00,2020-02-25 21:00
1582686027351.0,5.1605987548828125,-6.161102294921875,-0.6756744384765625,2020-02-25 21:00:27.351000-06:00,2020-02-25 21:00
1582686027401.0,2.7319564819335938,-9.031936645507812,2.5766983032226562,2020-02-25 21:00:27.401000-06:00,2020-02-25 21:00
1582686027451.0,2.239044189453125,-7.303840637207031,3.4417037963867188,2020-02-25 21:00:27.451000-06:00,2020-02-25 21:00
1582686027501.0,5.7707929611206055,-5.823061943054199,2.51031494140625,2020-02-25 21:00:27.501000-06:00,2020-02-25 21:00
1582686027551.0,5.7558135986328125,-6.089757919311523,4.8889617919921875,2020-02-25 21:00:27.551000-06:00,2020-02-25 21:00
1582686027601.0,3.48138427734375,-6.310493469238281,5.17315673828125,2020-02-25 21:00:27.601000-06:00,2020-02-25 21:00
1582686027651.0,7.193145751953125,-4.34681510925293,2.2912750244140625,2020-02-25 21:00:27.651000-06:00,2020-02-25 21:00
1582686027701.0,2.7319564819335938,-3.8986263275146484,6.46282958984375,2020-02-25 21:00:27.701000-06:00,2020-02-25 21:00
1582686027751.0,4.026397705078125,-3.472810745239258,8.779136657714844,2020-02-25 21:00:27.751000-06:00,2020-02-25 21:00
1582686027801.0,10.53839111328125,-3.0374364852905273,7.139869689941406,2020-02-25 21:00:27.801000-06:00,2020-02-25 21:00
1582686027851.0,2.295501708984375,-2.9476547241210938,7.57489013671875,2020-02-25 21:00:27.851000-06:00,2020-02-25 21:00
1582686027901.0,8.683586120605469,-2.341000556945801,-0.9512939453125,2020-02-25 21:00:27.901000-06:00,2020-02-25 21:00
1582686027951.0,10.108924865722656,-1.8730926513671875,5.363800048828125,2020-02-25 21:00:27.951000-06:00,2020-02-25 21:00
1582686028001.0,9.545257568359375,1.0708465576171875,8.39288330078125,2020-02-25 21:00:28.001000-06:00,2020-02-25 21:00
1582686028051.0,8.417510986328125,-1.120880126953125,-4.022089004516602,2020-02-25 21:00:28.051000-06:00,2020-02-25 21:00
1582686028101.0,10.459014892578125,-2.2117919921875,-4.326862335205078,2020-02-25 21:00:28.101000-06:00,2020-02-25 21:00
1582686028151.0,8.794303894042969,-1.9706707000732422,-4.062225341796875,2020-02-25 21:00:28.151000-06:00,2020-02-25 21:00
1582686028201.0,7.455020904541016,-2.141735076904297,-8.804855346679688,2020-02-25 21:00:28.201000-06:00,2020-02-25 21:00
1582686028251.0,6.680228233337402,-1.245147705078125,-8.895988464355469,2020-02-25 21:00:28.251000-06:00,2020-02-25 21:00
1582686028301.0,6.4558305740356445,-0.9535751342773438,-7.472399711608887,2020-02-25 21:00:28.301000-06:00,2020-02-25 21:00
1582686028351.0,6.520503997802734,-1.265049934387207,-7.257946014404297,2020-02-25 21:00:28.351000-06:00,2020-02-25 21:00
1582686028401.0,6.351402759552002,-1.409958839416504,-6.6739501953125,2020-02-25 21:00:28.401000-06:00,2020-02-25 21:00
1582686028451.0,6.363675117492676,-1.2609996795654297,-7.374509811401367,2020-02-25 21:00:28.451000-06:00,2020-02-25 21:00
1582686028501.0,6.204366683959961,-0.9980316162109375,-7.708953857421875,2020-02-25 21:00:28.501000-06:00,2020-02-25 21:00
1582686028551.0,5.980899810791016,0.3336029052734375,-6.535438537597656,2020-02-25 21:00:28.551000-06:00,2020-02-25 21:00
1582686028601.0,5.691351339221001,2.839752197265625,-5.509723663330078,2020-02-25 21:00:28.601000-06:00,2020-02-25 21:00
1582686028651.0,5.639904022216797,5.0844879150390625,-4.733386993408203,2020-02-25 21:00:28.651000-06:00,2020-02-25 21:00
1582686028701.0,5.048564910888672,7.722625732421875,-4.029075622558594,2020-02-25 21:00:28.701000-06:00,2020-02-25 21:00
1582686028751.0,4.568905830383301,10.828109741210938,-2.914409637451172,2020-02-25 21:00:28.751000-06:00,2020-02-25 21:00
1582686028801.0,4.379556655883789,11.429874420166016,-2.489971160888672,2020-02-25 21:00:28.801000-06:00,2020-02-25 21:00
1582686028851.0,4.082507610321045,10.9359130859375,-3.116252899169922,2020-02-25 21:00:28.851000-06:00,2020-02-25 21:00
1582686028901.0,4.306491851806641,10.167621612548828,-2.1568965911865234,2020-02-25 21:00:28.901000-06:00,2020-02-25 21:00
1582686028951.0,5.3802642822265625,9.908576965332031,-2.3377513885498047,2020-02-25 21:00:28.951000-06:00,2020-02-25 21:00
1582686029001.0,6.4283294677734375,8.546371459960938,-2.4045867919921875,2020-02-25 21:00:29.001000-06:00,2020-02-25 21:00
1582686029051.0,5.643455505371094,5.231117248535156,0.1251220703125,2020-02-25 21:00:29.051000-06:00,2020-02-25 21:00
1582686029101.0,5.139350891113281,6.966583251953125,-8.201065063476562,2020-02-25 21:00:29.101000-06:00,2020-02-25 21:00
1582686029151.0,6.521881103515625,5.2951507568359375,-5.140556335449219,2020-02-25 21:00:29.151000-06:00,2020-02-25 21:00
1582686029201.0,6.9082489013671875,2.8930320739746094,-5.365962982177734,2020-02-25 21:00:29.201000-06:00,2020-02-25 21:00
1582686029251.0,8.204933166503906,2.886810302734375,-5.109399795532227,2020-02-25 21:00:29.251000-06:00,2020-02-25 21:00
1582686029301.0,8.385037422180176,2.1482086181640625,-5.420677185058594,2020-02-25 21:00:29.301000-06:00,2020-02-25 21:00
1582686029351.0,8.319533348083496,1.210500717163086,-4.883491039276123,2020-02-25 21:00:29.351000-06:00,2020-02-25 21:00
1582686029401.0,8.45706558227539,0.7813625335693359,-4.815760612487793,2020-02-25 21:00:29.401000-06:00,2020-02-25 21:00
1582686029451.0,8.594597816467285,0.35222625732421875,-4.748030424118042,2020-02-25 21:00:29.451000-06:00,2020-02-25 21:00
1582686029501.0,8.73213005065918,-0.07691001892089844,-4.680299997329712,2020-02-25 21:00:29.501000-06:00,2020-02-25 21:00
1582686029551.0,8.87739372253418,-0.18283462524414062,-4.6553239822387695,2020-02-25 21:00:29.551000-06:00,2020-02-25 21:00
1582686029601.0,8.828405380249023,-0.5056257247924805,-4.611248016357422,2020-02-25 21:00:29.601000-06:00,2020-02-25 21:00
1582686029651.0,8.917038440704346,-0.7479286193847656,-4.783483028411865,2020-02-25 21:00:29.651000-06:00,2020-02-25 21:00
1582686029701.0,8.929456233978271,-0.816680908203125,-4.199859619140625,2020-02-25 21:00:29.701000-06:00,2020-02-25 21:00
1582686029751.0,8.705760955810547,0.05156707763671875,-4.281982421875,2020-02-25 21:00:29.751000-06:00,2020-02-25 21:00
1582686029801.0,9.061012268066406,-2.128936767578125,-4.190357208251953,2020-02-25 21:00:29.801000-06:00,2020-02-25 21:00
1582686029851.0,8.64324951171875,-0.1589508056640625,-4.422412872314453,2020-02-25 21:00:29.851000-06:00,2020-02-25 21:00
1582686029901.0,9.155345916748047,-0.7661209106445312,-5.09417724609375,2020-02-25 21:00:29.901000-06:00,2020-02-25 21:00
1582686029951.0,5.54345703125,2.430248260498047,1.173828125,2020-02-25 21:00:29.951000-06:00,2020-02-25 21:00
1582686030001.0,11.357818603515625,-1.7505683898925781,-12.99835205078125,2020-02-25 21:00:30.001000-06:00,2020-02-25 21:00
1582686030051.0,7.600860595703125,-0.7848587036132812,-5.8385009765625,2020-02-25 21:00:30.051000-06:00,2020-02-25 21:00
1582686030101.0,8.082084655761719,0.042346954345703125,-1.556976318359375,2020-02-25 21:00:30.101000-06:00,2020-02-25 21:00
1582686030151.0,8.492904663085938,-0.09871292114257812,-6.9090576171875,2020-02-25 21:00:30.151000-06:00,2020-02-25 21:00
1582686030201.0,8.179344177246094,-0.015147209167480469,-7.1634063720703125,2020-02-25 21:00:30.201000-06:00,2020-02-25 21:00
1582686030251.0,7.844455718994141,-0.005084991455078125,-5.591724395751953,2020-02-25 21:00:30.251000-06:00,2020-02-25 21:00
1582686030301.0,7.407989501953125,-0.23361968994140625,-4.8220367431640625,2020-02-25 21:00:30.301000-06:00,2020-02-25 21:00
1582686030351.0,6.309654235839844,0.23410415649414062,-7.165679931640625,2020-02-25 21:00:30.351000-06:00,2020-02-25 21:00
1582686030401.0,7.028831481933594,-0.3554401397705078,-8.347511291503906,2020-02-25 21:00:30.401000-06:00,2020-02-25 21:00
1582686030451.0,6.797196388244629,-0.4716653823852539,-8.543523788452148,2020-02-25 21:00:30.451000-06:00,2020-02-25 21:00
1582686030501.0,6.700241565704346,-0.33487987518310547,-8.027484893798828,2020-02-25 21:00:30.501000-06:00,2020-02-25 21:00
1582686030551.0,6.603286266326904,-0.19809436798095703,-7.511445999145508,2020-02-25 21:00:30.551000-06:00,2020-02-25 21:00
1582686030601.0,6.506331443786621,-0.061308860778808594,-6.9954071044921875,2020-02-25 21:00:30.601000-06:00,2020-02-25 21:00
1582686030651.0,6.40937614440918,0.07547664642333984,-6.479368209838867,2020-02-25 21:00:30.651000-06:00,2020-02-25 21:00
1582686030701.0,6.670677185058594,0.2143840789794922,-6.761405944824219,2020-02-25 21:00:30.701000-06:00,2020-02-25 21:00
1582686030751.0,6.865761399269104,0.3250446319580078,-7.329151153564453,2020-02-25 21:00:30.751000-06:00,2020-02-25 21:00
1582686030801.0,6.504341125488281,0.425081729888916,-7.448474884033203,2020-02-25 21:00:30.801000-06:00,2020-02-25 21:00
1582686030851.0,6.1454057693481445,0.5893831253051758,-7.4566497802734375,2020-02-25 21:00:30.851000-06:00,2020-02-25 21:00
1582686030901.0,6.1707868576049805,0.7592926025390625,-7.705781936645508,2020-02-25 21:00:30.901000-06:00,2020-02-25 21:00
1582686030951.0,6.048923492431641,0.8102779388427734,-8.179357528686523,2020-02-25 21:00:30.951000-06:00,2020-02-25 21:00
1582686031001.0,5.77421760559082,0.8455772399902344,-8.210702896118164,2020-02-25 21:00:31.001000-06:00,2020-02-25 21:00
1582686031051.0,5.782092094421387,0.922274112701416,-8.114242315292358,2020-02-25 21:00:31.051000-06:00,2020-02-25 21:00
1582686031101.0,5.813221216201782,0.9993596076965332,-8.07527208328247,2020-02-25 21:00:31.101000-06:00,2020-02-25 21:00
1582686031151.0,5.6770429611206055,1.063063144683838,-7.779985427856445,2020-02-25 21:00:31.151000-06:00,2020-02-25 21:00
1582686031201.0,5.545309066772461,1.1089813709259033,-7.763256072998047,2020-02-25 21:00:31.201000-06:00,2020-02-25 21:00
1582686031251.0,5.387846946716309,1.2049446105957031,-7.976672172546387,2020-02-25 21:00:31.251000-06:00,2020-02-25 21:00
1582686031301.0,5.18569278717041,1.2280235290527344,-8.390625,2020-02-25 21:00:31.301000-06:00,2020-02-25 21:00
1582686031351.0,4.955158233642578,1.2786898612976074,-8.560823917388916,2020-02-25 21:00:31.351000-06:00,2020-02-25 21:00
1582686031401.0,4.707263946533203,1.3441983461380005,-8.609903335571289,2020-02-25 21:00:31.401000-06:00,2020-02-25 21:00
1582686031451.0,4.546500205993652,1.3451318144798279,-9.101272583007812,2020-02-25 21:00:31.451000-06:00,2020-02-25 21:00
1582686031501.0,4.44174861907959,1.3744125366210938,-9.015106201171875,2020-02-25 21:00:31.501000-06:00,2020-02-25 21:00
1582686031551.0,4.447336196899414,1.2875900268554688,-8.911223411560059,2020-02-25 21:00:31.551000-06:00,2020-02-25 21:00
1582686031601.0,4.463800668716431,1.2880840301513672,-9.074965476989746,2020-02-25 21:00:31.601000-06:00,2020-02-25 21:00
1582686031651.0,4.364193916320801,1.2746753692626953,-9.029302597045898,2020-02-25 21:00:31.651000-06:00,2020-02-25 21:00
1582686031701.0,4.364583492279053,1.1797709465026855,-8.655570983886719,2020-02-25 21:00:31.701000-06:00,2020-02-25 21:00
1582686031751.0,4.547512054443359,1.2359580993652344,-8.389970779418945,2020-02-25 21:00:31.751000-06:00,2020-02-25 21:00
1582686031801.0,4.63529372215271,1.3383684158325195,-8.080011367797852,2020-02-25 21:00:31.801000-06:00,2020-02-25 21:00
1582686031851.0,4.494930267333984,1.4448390007019043,-7.807677268981934,2020-02-25 21:00:31.851000-06:00,2020-02-25 21:00
1582686031901.0,4.411140203475952,1.3452587127685547,-8.532463073730469,2020-02-25 21:00:31.901000-06:00,2020-02-25 21:00
1582686031951.0,4.666347503662109,1.4026870727539062,-9.646587371826172,2020-02-25 21:00:31.951000-06:00,2020-02-25 21:00
1582686032001.0,4.9877777099609375,1.6980762481689453,-9.32147216796875,2020-02-25 21:00:32.001000-06:00,2020-02-25 21:00
1582686032051.0,4.970541000366211,1.7894220352172852,-8.49251937866211,2020-02-25 21:00:32.051000-06:00,2020-02-25 21:00
1582686032101.0,5.016959190368652,1.8426060676574707,-8.243983879685402,2020-02-25 21:00:32.101000-06:00,2020-02-25 21:00
1582686032151.0,5.23040771484375,2.01737117767334,-7.925388336181641,2020-02-25 21:00:32.151000-06:00,2020-02-25 21:00
1582686032201.0,5.618585586547852,2.4696617126464844,-7.4074249267578125,2020-02-25 21:00:32.201000-06:00,2020-02-25 21:00
1582686032251.0,6.251434326171875,2.892301559448242,-7.5295867919921875,2020-02-25 21:00:32.251000-06:00,2020-02-25 21:00
1582686032301.0,6.7150115966796875,3.095090866088867,-7.879419326782227,2020-02-25 21:00:32.301000-06:00,2020-02-25 21:00
1582686032351.0,6.7954301834106445,3.221007823944092,-7.566043853759766,2020-02-25 21:00:32.351000-06:00,2020-02-25 21:00
1582686032401.0,6.927894592285156,3.1224594116210938,-6.851387023925781,2020-02-25 21:00:32.401000-06:00,2020-02-25 21:00
1582686032451.0,7.261850357055664,2.92403507232666,-6.057872772216797,2020-02-25 21:00:32.451000-06:00,2020-02-25 21:00
1582686032501.0,7.579763412475586,2.7998828887939453,-4.963462829589844,2020-02-25 21:00:32.501000-06:00,2020-02-25 21:00
1582686032551.0,7.96588134765625,2.936573028564453,-4.241344451904297,2020-02-25 21:00:32.551000-06:00,2020-02-25 21:00
1582686032601.0,8.380796432495117,3.2856922149658203,-4.166406631469727,2020-02-25 21:00:32.601000-06:00,2020-02-25 21:00
1582686032651.0,8.592519760131836,3.4969844818115234,-4.432682037353516,2020-02-25 21:00:32.651000-06:00,2020-02-25 21:00
1582686032701.0,8.667741775512695,3.6041741371154785,-4.385000228881836,2020-02-25 21:00:32.701000-06:00,2020-02-25 21:00
1582686032751.0,8.688903331756592,3.637993335723877,-3.8746986389160156,2020-02-25 21:00:32.751000-06:00,2020-02-25 21:00
1582686032801.0,8.771049499511719,3.5359086990356445,-2.9692916870117188,2020-02-25 21:00:32.801000-06:00,2020-02-25 21:00
1582686032851.0,9.07711410522461,3.5667715072631836,-2.68719482421875,2020-02-25 21:00:32.851000-06:00,2020-02-25 21:00
1582686032901.0,9.294105529785156,3.61774218082428,-2.5779647827148438,2020-02-25 21:00:32.901000-06:00,2020-02-25 21:00
1582686032951.0,9.247581958770752,3.7226486206054688,-2.2247886657714844,2020-02-25 21:00:32.951000-06:00,2020-02-25 21:00
1582686033001.0,9.190050184726715,3.7501230239868164,-1.9289226531982422,2020-02-25 21:00:33.001000-06:00,2020-02-25 21:00
1582686033051.0,9.007453918457031,3.669929027557373,-1.2486839294433594,2020-02-25 21:00:33.051000-06:00,2020-02-25 21:00
1582686033101.0,8.508209228515625,3.7375049591064453,0.085723876953125,2020-02-25 21:00:33.101000-06:00,2020-02-25 21:00
1582686033151.0,7.787181854248047,4.04566764831543,1.8286285400390625,2020-02-25 21:00:33.151000-06:00,2020-02-25 21:00
1582686033201.0,6.697998046875,4.709232330322266,3.6364822387695312,2020-02-25 21:00:33.201000-06:00,2020-02-25 21:00
1582686033251.0,5.3760528564453125,5.5750579833984375,5.798858642578125,2020-02-25 21:00:33.251000-06:00,2020-02-25 21:00
1582686033301.0,4.784495115280151,6.370830535888672,8.005447387695312,2020-02-25 21:00:33.301000-06:00,2020-02-25 21:00
1582686033351.0,4.762223467230797,6.535593032836914,9.037919998168945,2020-02-25 21:00:33.351000-06:00,2020-02-25 21:00
1582686033401.0,4.753702342510223,6.237112045288086,9.04760456085205,2020-02-25 21:00:33.401000-06:00,2020-02-25 21:00
1582686033451.0,4.557157516479492,6.073620796203613,7.901863098144531,2020-02-25 21:00:33.451000-06:00,2020-02-25 21:00
1582686033501.0,4.161725997924805,5.666278839111328,6.377105712890625,2020-02-25 21:00:33.501000-06:00,2020-02-25 21:00
1582686033551.0,4.035288333892822,5.326889514923096,6.445587158203125,2020-02-25 21:00:33.551000-06:00,2020-02-25 21:00
1582686033601.0,4.341577529907227,5.041774749755859,7.3898468017578125,2020-02-25 21:00:33.601000-06:00,2020-02-25 21:00
1582686033651.0,4.858608245849609,5.029603958129883,7.6793036460876465,2020-02-25 21:00:33.651000-06:00,2020-02-25 21:00
1582686033701.0,5.525585174560547,4.915504455566406,7.987033843994141,2020-02-25 21:00:33.701000-06:00,2020-02-25 21:00
1582686033751.0,6.311775207519531,4.513469696044922,8.29842233657837,2020-02-25 21:00:33.751000-06:00,2020-02-25 21:00
1582686033801.0,6.525873184204102,3.964130401611328,7.2480316162109375,2020-02-25 21:00:33.801000-06:00,2020-02-25 21:00
1582686033851.0,6.443056344985962,3.1783523559570312,4.108123779296875,2020-02-25 21:00:33.851000-06:00,2020-02-25 21:00
1582686033901.0,8.028228759765625,2.9543046951293945,2.2056522369384766,2020-02-25 21:00:33.901000-06:00,2020-02-25 21:00
1582686033951.0,9.378232955932617,3.1440887451171875,2.0810976028442383,2020-02-25 21:00:33.951000-06:00,2020-02-25 21:00
1582686034001.0,6.632232666015625,2.8179359436035156,-0.432891845703125,2020-02-25 21:00:34.001000-06:00,2020-02-25 21:00
1582686034051.0,4.977338790893555,2.4469776153564453,-6.076202392578125,2020-02-25 21:00:34.051000-06:00,2020-02-25 21:00
1582686034101.0,5.783199310302734,2.9233970642089844,-9.58013916015625,2020-02-25 21:00:34.101000-06:00,2020-02-25 21:00
1582686034151.0,6.403322219848633,3.5753822326660156,-9.138206481933594,2020-02-25 21:00:34.151000-06:00,2020-02-25 21:00
1582686034201.0,6.488819599151611,3.8001883029937744,-9.197929382324219,2020-02-25 21:00:34.201000-06:00,2020-02-25 21:00
1582686034251.0,5.874431610107422,3.672177314758301,-9.260879516601562,2020-02-25 21:00:34.251000-06:00,2020-02-25 21:00
1582686034301.0,5.288137435913086,3.4151926040649414,-8.003700256347656,2020-02-25 21:00:34.301000-06:00,2020-02-25 21:00
1582686034351.0,5.403615951538086,3.147397994995117,-7.085289001464844,2020-02-25 21:00:34.351000-06:00,2020-02-25 21:00
1582686034401.0,5.771961212158203,3.1194281578063965,-6.605262756347656,2020-02-25 21:00:34.401000-06:00,2020-02-25 21:00
1582686034451.0,6.078386306762695,3.432178497314453,-6.967899322509766,2020-02-25 21:00:34.451000-06:00,2020-02-25 21:00
1582686034501.0,6.408538818359375,3.9156246185302734,-7.813472747802734,2020-02-25 21:00:34.501000-06:00,2020-02-25 21:00
1582686034551.0,6.645936965942383,3.7187652587890625,-8.04937744140625,2020-02-25 21:00:34.551000-06:00,2020-02-25 21:00
1582686034601.0,7.45672607421875,3.6153202056884766,-7.704835891723633,2020-02-25 21:00:34.601000-06:00,2020-02-25 21:00
1582686034651.0,7.609794616699219,3.86679744720459,-5.981475830078125,2020-02-25 21:00:34.651000-06:00,2020-02-25 21:00
1582686034701.0,7.15962028503418,3.7772865295410156,-2.5844573974609375,2020-02-25 21:00:34.701000-06:00,2020-02-25 21:00
1582686034751.0,7.705268859863281,4.402313232421875,0.2173919677734375,2020-02-25 21:00:34.751000-06:00,2020-02-25 21:00
1582686034801.0,5.9356536865234375,5.6049957275390625,0.646026611328125,2020-02-25 21:00:34.801000-06:00,2020-02-25 21:00
1582686034851.0,4.532663345336914,7.170692443847656,1.3125991821289062,2020-02-25 21:00:34.851000-06:00,2020-02-25 21:00
1582686034901.0,5.534782409667969,9.85687255859375,1.9182100296020508,2020-02-25 21:00:34.901000-06:00,2020-02-25 21:00
1582686034951.0,5.293663024902344,9.072738647460938,0.3029022216796875,2020-02-25 21:00:34.951000-06:00,2020-02-25 21:00
1582686035001.0,5.345890045166016,12.12579345703125,-2.784393310546875,2020-02-25 21:00:35.001000-06:00,2020-02-25 21:00
1582686035051.0,5.429862976074219,10.970733642578125,-3.1187286376953125,2020-02-25 21:00:35.051000-06:00,2020-02-25 21:00
1582686035101.0,4.0991363525390625,6.964942932128906,-1.5056381225585938,2020-02-25 21:00:35.101000-06:00,2020-02-25 21:00
1582686035151.0,2.7653770446777344,10.1405029296875,-1.1375255584716797,2020-02-25 21:00:35.151000-06:00,2020-02-25 21:00
1582686035201.0,1.8263702392578125,13.120473861694336,-1.400132179260254,2020-02-25 21:00:35.201000-06:00,2020-02-25 21:00
1582686035251.0,1.5744085311889648,10.78521728515625,-1.3014278411865234,2020-02-25 21:00:35.251000-06:00,2020-02-25 21:00
1582686035301.0,1.355234146118164,9.410314559936523,-0.523895263671875,2020-02-25 21:00:35.301000-06:00,2020-02-25 21:00
1582686035351.0,1.142277717590332,9.361885070800781,-0.3526344299316406,2020-02-25 21:00:35.351000-06:00,2020-02-25 21:00
1582686035401.0,0.9142971038818359,9.029129028320312,-0.5228796005249023,2020-02-25 21:00:35.401000-06:00,2020-02-25 21:00
1582686035451.0,0.6819229125976562,9.304428100585938,-0.9710464477539062,2020-02-25 21:00:35.451000-06:00,2020-02-25 21:00
1582686035501.0,2.272918701171875,10.476524353027344,-1.6585159301757812,2020-02-25 21:00:35.501000-06:00,2020-02-25 21:00
1582686035551.0,2.863555908203125,10.993998527526855,-1.4959144592285156,2020-02-25 21:00:35.551000-06:00,2020-02-25 21:00
1582686035601.0,2.0059242248535156,10.008163452148438,-3.2293548583984375,2020-02-25 21:00:35.601000-06:00,2020-02-25 21:00
1582686035651.0,4.0105438232421875,6.624267578125,-4.7387542724609375,2020-02-25 21:00:35.651000-06:00,2020-02-25 21:00
1582686035701.0,5.981992721557617,5.202854156494141,-3.6200180053710938,2020-02-25 21:00:35.701000-06:00,2020-02-25 21:00
1582686035751.0,6.5415191650390625,4.43560791015625,-2.0190811157226562,2020-02-25 21:00:35.751000-06:00,2020-02-25 21:00
1582686035801.0,8.041999816894531,6.832763671875,-1.995635986328125,2020-02-25 21:00:35.801000-06:00,2020-02-25 21:00
1582686035851.0,7.1506195068359375,9.85211181640625,-2.715789794921875,2020-02-25 21:00:35.851000-06:00,2020-02-25 21:00
1582686035901.0,5.246452331542969,10.744705200195312,2.097198486328125,2020-02-25 21:00:35.901000-06:00,2020-02-25 21:00
1582686035951.0,4.771973133087158,10.289352416992188,3.614105224609375,2020-02-25 21:00:35.951000-06:00,2020-02-25 21:00
1582686036001.0,6.363525390625,8.746864318847656,2.3361330032348633,2020-02-25 21:00:36.001000-06:00,2020-02-25 21:00
1582686036051.0,6.569854736328125,8.354438781738281,2.431110143661499,2020-02-25 21:00:36.051000-06:00,2020-02-25 21:00
1582686036101.0,5.679866790771484,7.764434814453125,3.2462997436523438,2020-02-25 21:00:36.101000-06:00,2020-02-25 21:00
1582686036151.0,5.373422622680664,6.9402923583984375,2.7632064819335938,2020-02-25 21:00:36.151000-06:00,2020-02-25 21:00
1582686036201.0,4.595100402832031,7.050691604614258,2.4188270568847656,2020-02-25 21:00:36.201000-06:00,2020-02-25 21:00
1582686036251.0,3.2781906127929688,8.185684204101562,2.6624512672424316,2020-02-25 21:00:36.251000-06:00,2020-02-25 21:00
1582686036301.0,1.6951217651367188,9.30197525024414,3.164043426513672,2020-02-25 21:00:36.301000-06:00,2020-02-25 21:00
1582686036351.0,0.4613037109375,9.563708305358887,3.7240428924560547,2020-02-25 21:00:36.351000-06:00,2020-02-25 21:00
1582686036401.0,-0.44736480712890625,9.465696811676025,4.097585678100586,2020-02-25 21:00:36.401000-06:00,2020-02-25 21:00
1582686036451.0,-1.3560333251953125,9.367685317993164,4.471128463745117,2020-02-25 21:00:36.451000-06:00,2020-02-25 21:00
1582686036501.0,-1.6447372436523438,8.974418640136719,4.94329833984375,2020-02-25 21:00:36.501000-06:00,2020-02-25 21:00
1582686036551.0,-0.6878890991210938,8.593605041503906,5.9769439697265625,2020-02-25 21:00:36.551000-06:00,2020-02-25 21:00
1582686036601.0,-2.461944580078125,9.66748046875,4.9963836669921875,2020-02-25 21:00:36.601000-06:00,2020-02-25 21:00
1582686036651.0,-4.398773193359375,9.800399780273438,5.6024169921875,2020-02-25 21:00:36.651000-06:00,2020-02-25 21:00
1582686036701.0,-4.191974639892578,10.16021728515625,4.971712112426758,2020-02-25 21:00:36.701000-06:00,2020-02-25 21:00
1582686036751.0,-0.5426788330078125,7.6451873779296875,3.4160919189453125,2020-02-25 21:00:36.751000-06:00,2020-02-25 21:00
1582686036801.0,-1.5026092529296875,10.152313232421875,2.1020355224609375,2020-02-25 21:00:36.801000-06:00,2020-02-25 21:00
1582686036851.0,0.1496124267578125,8.665664672851562,0.266937255859375,2020-02-25 21:00:36.851000-06:00,2020-02-25 21:00
1582686036901.0,-0.6160202026367188,9.572223663330078,1.8919811248779297,2020-02-25 21:00:36.901000-06:00,2020-02-25 21:00
1582686036951.0,1.8930740356445312,9.390541076660156,1.7243728637695312,2020-02-25 21:00:36.951000-06:00,2020-02-25 21:00
1582686037001.0,2.5653228759765625,9.281364440917969,2.1367034912109375,2020-02-25 21:00:37.001000-06:00,2020-02-25 21:00
1582686037051.0,3.7630468606948853,9.601917266845703,2.1811752319335938,2020-02-25 21:00:37.051000-06:00,2020-02-25 21:00
1582686037101.0,3.697235107421875,8.175689697265625,1.7239875793457031,2020-02-25 21:00:37.101000-06:00,2020-02-25 21:00
1582686037151.0,2.0905380249023438,9.379249572753906,1.8445587158203125,2020-02-25 21:00:37.151000-06:00,2020-02-25 21:00
1582686037201.0,0.0595550537109375,7.489355087280273,1.8455829620361328,2020-02-25 21:00:37.201000-06:00,2020-02-25 21:00
1582686037251.0,-4.072662353515625,9.1248779296875,3.1858673095703125,2020-02-25 21:00:37.251000-06:00,2020-02-25 21:00
1582686037301.0,-5.372955322265625,8.689142227172852,4.062381744384766,2020-02-25 21:00:37.301000-06:00,2020-02-25 21:00
1582686037351.0,-5.14886474609375,7.996490478515625,12.92919921875,2020-02-25 21:00:37.351000-06:00,2020-02-25 21:00
1582686037401.0,-2.2659912109375,6.09002685546875,7.6800537109375,2020-02-25 21:00:37.401000-06:00,2020-02-25 21:00
1582686037451.0,-2.5220718383789062,7.7800445556640625,7.022003173828125,2020-02-25 21:00:37.451000-06:00,2020-02-25 21:00
1582686037501.0,-0.4535560607910156,6.942840576171875,7.7183990478515625,2020-02-25 21:00:37.501000-06:00,2020-02-25 21:00
1582686037551.0,1.47314453125,5.527320861816406,7.933746337890625,2020-02-25 21:00:37.551000-06:00,2020-02-25 21:00
1582686037601.0,0.9085235595703125,4.877901077270508,8.196529388427734,2020-02-25 21:00:37.601000-06:00,2020-02-25 21:00
1582686037651.0,-2.4525909423828125,6.681919097900391,8.831321716308594,2020-02-25 21:00:37.651000-06:00,2020-02-25 21:00
1582686037701.0,-0.3830108642578125,6.066188812255859,8.154375076293945,2020-02-25 21:00:37.701000-06:00,2020-02-25 21:00
1582686037751.0,-1.5675811767578125,5.860176086425781,8.438961029052734,2020-02-25 21:00:37.751000-06:00,2020-02-25 21:00
1582686037801.0,-0.05069732666015625,5.422227382659912,7.89832878112793,2020-02-25 21:00:37.801000-06:00,2020-02-25 21:00
1582686037851.0,-0.6099853515625,6.019718170166016,7.778877854347229,2020-02-25 21:00:37.851000-06:00,2020-02-25 21:00
1582686037901.0,-2.168975830078125,5.860298156738281,8.798042297363281,2020-02-25 21:00:37.901000-06:00,2020-02-25 21:00
1582686037951.0,0.070098876953125,6.5446929931640625,9.125511169433594,2020-02-25 21:00:37.951000-06:00,2020-02-25 21:00
1582686038001.0,1.93463134765625,4.172067165374756,5.612508773803711,2020-02-25 21:00:38.001000-06:00,2020-02-25 21:00
1582686038051.0,0.2522735595703125,7.1375732421875,12.420989990234375,2020-02-25 21:00:38.051000-06:00,2020-02-25 21:00
1582686038101.0,-0.2509002685546875,4.734718322753906,8.338644027709961,2020-02-25 21:00:38.101000-06:00,2020-02-25 21:00
1582686038151.0,-0.15313720703125,5.543483734130859,8.508726119995117,2020-02-25 21:00:38.151000-06:00,2020-02-25 21:00
1582686038201.0,0.16831207275390625,5.403236389160156,8.332597732543945,2020-02-25 21:00:38.201000-06:00,2020-02-25 21:00
1582686038251.0,-0.07122802734375,6.1398468017578125,7.6019744873046875,2020-02-25 21:00:38.251000-06:00,2020-02-25 21:00
1582686038301.0,-0.930023193359375,6.1530303955078125,7.9936370849609375,2020-02-25 21:00:38.301000-06:00,2020-02-25 21:00
1582686038351.0,-2.481109619140625,6.2285003662109375,8.239166259765625,2020-02-25 21:00:38.351000-06:00,2020-02-25 21:00
1582686038401.0,-0.59710693359375,6.020303726196289,8.722270965576172,2020-02-25 21:00:38.401000-06:00,2020-02-25 21:00
1582686038451.0,0.778564453125,5.5475616455078125,7.999502182006836,2020-02-25 21:00:38.451000-06:00,2020-02-25 21:00
1582686038501.0,1.754974365234375,4.708183288574219,8.071968078613281,2020-02-25 21:00:38.501000-06:00,2020-02-25 21:00
1582686038551.0,0.280303955078125,5.314001560211182,8.610713958740234,2020-02-25 21:00:38.551000-06:00,2020-02-25 21:00
1582686038601.0,0.17767715454101562,4.7724609375,8.405769348144531,2020-02-25 21:00:38.601000-06:00,2020-02-25 21:00
1582686038651.0,0.48955053091049194,3.6567916870117188,9.351404190063477,2020-02-25 21:00:38.651000-06:00,2020-02-25 21:00
1582686038701.0,-0.29174137115478516,6.9308624267578125,9.076400756835938,2020-02-25 21:00:38.701000-06:00,2020-02-25 21:00
1582686038751.0,-0.0148773193359375,4.3925323486328125,7.930274963378906,2020-02-25 21:00:38.751000-06:00,2020-02-25 21:00
1582686038801.0,0.19586181640625,5.578344821929932,8.756839752197266,2020-02-25 21:00:38.801000-06:00,2020-02-25 21:00
1582686038851.0,1.120086669921875,5.1230316162109375,8.65484619140625,2020-02-25 21:00:38.851000-06:00,2020-02-25 21:00
1582686038901.0,0.8816909790039062,3.3232216835021973,9.822120666503906,2020-02-25 21:00:38.901000-06:00,2020-02-25 21:00
1582686038951.0,1.200775146484375,3.0252227783203125,9.954590618610382,2020-02-25 21:00:38.951000-06:00,2020-02-25 21:00
1582686039001.0,1.809234619140625,3.0807952880859375,10.816726684570312,2020-02-25 21:00:39.001000-06:00,2020-02-25 21:00
1582686039051.0,0.9302082061767578,0.94830322265625,11.070274353027344,2020-02-25 21:00:39.051000-06:00,2020-02-25 21:00
1582686039101.0,0.9152336120605469,-2.4312477111816406,10.915904998779297,2020-02-25 21:00:39.101000-06:00,2020-02-25 21:00
1582686039151.0,-0.947509765625,-2.5164108276367188,10.565925598144531,2020-02-25 21:00:39.151000-06:00,2020-02-25 21:00
1582686039201.0,-1.640289306640625,-3.6222915649414062,9.446983337402344,2020-02-25 21:00:39.201000-06:00,2020-02-25 21:00
1582686039251.0,-1.2257461547851562,-5.1550445556640625,8.400749206542969,2020-02-25 21:00:39.251000-06:00,2020-02-25 21:00
1582686039301.0,-1.65386962890625,-5.6164703369140625,7.751289367675781,2020-02-25 21:00:39.301000-06:00,2020-02-25 21:00
1582686039351.0,-0.9449958801269531,-4.396038055419922,6.697788715362549,2020-02-25 21:00:39.351000-06:00,2020-02-25 21:00
1582686039401.0,-1.3507919311523438,-5.310157775878906,6.779476165771484,2020-02-25 21:00:39.401000-06:00,2020-02-25 21:00
1582686039451.0,-2.0279239416122437,-4.73974609375,6.530853271484375,2020-02-25 21:00:39.451000-06:00,2020-02-25 21:00
1582686039501.0,-2.4268951416015625,-1.0761566162109375,8.385047912597656,2020-02-25 21:00:39.501000-06:00,2020-02-25 21:00
1582686039551.0,-2.6537046432495117,-1.09539794921875,9.373682022094727,2020-02-25 21:00:39.551000-06:00,2020-02-25 21:00
1582686039601.0,-2.2268447875976562,-2.8042755126953125,9.15972900390625,2020-02-25 21:00:39.601000-06:00,2020-02-25 21:00
1582686039651.0,-1.9895515441894531,-1.9681930541992188,9.129100799560547,2020-02-25 21:00:39.651000-06:00,2020-02-25 21:00
1582686039701.0,-2.166339874267578,-2.011079788208008,9.366016626358032,2020-02-25 21:00:39.701000-06:00,2020-02-25 21:00
1582686039751.0,-2.2518959045410156,-1.9974136352539062,9.393174171447754,2020-02-25 21:00:39.751000-06:00,2020-02-25 21:00
1582686039801.0,-2.268387794494629,-2.0067672729492188,9.48004150390625,2020-02-25 21:00:39.801000-06:00,2020-02-25 21:00
1582686039851.0,-1.712153434753418,-2.718229293823242,9.304210662841797,2020-02-25 21:00:39.851000-06:00,2020-02-25 21:00
1582686039901.0,-1.6575355529785156,-2.1222305297851562,10.061195373535156,2020-02-25 21:00:39.901000-06:00,2020-02-25 21:00
1582686039951.0,-0.2564077377319336,-2.6389312744140625,8.951583862304688,2020-02-25 21:00:39.951000-06:00,2020-02-25 21:00
1582686040001.0,-1.6305875778198242,-1.8634033203125,10.189349889755249,2020-02-25 21:00:40.001000-06:00,2020-02-25 21:00
1582686040051.0,-0.7161293029785156,-2.6117935180664062,9.074321746826172,2020-02-25 21:00:40.051000-06:00,2020-02-25 21:00
1582686040101.0,-1.4213390350341797,-2.0671310424804688,9.275470733642578,2020-02-25 21:00:40.101000-06:00,2020-02-25 21:00
1582686040151.0,-2.7556381225585938,-2.0108375549316406,9.260971069335938,2020-02-25 21:00:40.151000-06:00,2020-02-25 21:00
1582686040201.0,-2.2463455200195312,-2.4471778869628906,9.174976348876953,2020-02-25 21:00:40.201000-06:00,2020-02-25 21:00
1582686040251.0,-1.9980583190917969,-2.8035125732421875,9.258338928222656,2020-02-25 21:00:40.251000-06:00,2020-02-25 21:00
1582686040301.0,-2.173166275024414,-2.5246734619140625,9.16395616531372,2020-02-25 21:00:40.301000-06:00,2020-02-25 21:00
1582686040351.0,-2.0093231201171875,-1.660491943359375,9.128263473510742,2020-02-25 21:00:40.351000-06:00,2020-02-25 21:00
1582686040401.0,-2.2250308990478516,-3.0540809631347656,9.156410217285156,2020-02-25 21:00:40.401000-06:00,2020-02-25 21:00
1582686040451.0,-2.2017898559570312,-2.8308181762695312,9.17198371887207,2020-02-25 21:00:40.451000-06:00,2020-02-25 21:00
1582686040501.0,-1.6014814376831055,-3.3276443481445312,9.330085754394531,2020-02-25 21:00:40.501000-06:00,2020-02-25 21:00
1582686040551.0,-1.6980199813842773,-3.5627593994140625,9.008249282836914,2020-02-25 21:00:40.551000-06:00,2020-02-25 21:00
1582686040601.0,-1.5892648696899414,-2.810577392578125,9.36661434173584,2020-02-25 21:00:40.601000-06:00,2020-02-25 21:00
1582686040651.0,-1.8298921585083008,-3.104024887084961,9.37320327758789,2020-02-25 21:00:40.651000-06:00,2020-02-25 21:00
1582686040701.0,-1.6967029571533203,-1.939208984375,9.58700180053711,2020-02-25 21:00:40.701000-06:00,2020-02-25 21:00
1582686040751.0,-2.248626708984375,-2.7944107055664062,9.378474235534668,2020-02-25 21:00:40.751000-06:00,2020-02-25 21:00
1582686040801.0,-2.6867637634277344,-2.1307334899902344,9.308045387268066,2020-02-25 21:00:40.801000-06:00,2020-02-25 21:00
1582686040851.0,-1.9665565490722656,-2.121753692626953,9.216058254241943,2020-02-25 21:00:40.851000-06:00,2020-02-25 21:00
1582686040901.0,-2.2379655838012695,-1.686370849609375,9.17880916595459,2020-02-25 21:00:40.901000-06:00,2020-02-25 21:00
1582686040951.0,-3.4075927734375,-0.4213066101074219,9.164970397949219,2020-02-25 21:00:40.951000-06:00,2020-02-25 21:00
1582686041001.0,-4.034832000732422,0.45461034774780273,9.160003662109375,2020-02-25 21:00:41.001000-06:00,2020-02-25 21:00
1582686041051.0,-4.0012969970703125,1.66839599609375,9.293193817138672,2020-02-25 21:00:41.051000-06:00,2020-02-25 21:00
1582686041101.0,-2.88427734375,-0.1751708984375,9.310440063476562,2020-02-25 21:00:41.101000-06:00,2020-02-25 21:00
1582686041151.0,-4.2945098876953125,0.8635902404785156,9.618988037109375,2020-02-25 21:00:41.151000-06:00,2020-02-25 21:00
1582686041201.0,-1.354034423828125,-2.4053802490234375,8.936023712158203,2020-02-25 21:00:41.201000-06:00,2020-02-25 21:00
1582686041251.0,-0.41690826416015625,-1.8368072509765625,9.85614013671875,2020-02-25 21:00:41.251000-06:00,2020-02-25 21:00
1582686041301.0,-2.7808990478515625,-0.23110198974609375,6.997589111328125,2020-02-25 21:00:41.301000-06:00,2020-02-25 21:00
1582686041351.0,-8.290802001953125,-0.9798126220703125,9.19427490234375,2020-02-25 21:00:41.351000-06:00,2020-02-25 21:00
1582686041401.0,-3.7178955078125,-0.991302490234375,9.294990539550781,2020-02-25 21:00:41.401000-06:00,2020-02-25 21:00
1582686041451.0,-4.854705810546875,0.8698645830154419,9.141592979431152,2020-02-25 21:00:41.451000-06:00,2020-02-25 21:00
1582686041501.0,-4.4916534423828125,1.1411590576171875,9.033282279968262,2020-02-25 21:00:41.501000-06:00,2020-02-25 21:00
1582686041551.0,-4.0311126708984375,1.6078033447265625,8.971000671386719,2020-02-25 21:00:41.551000-06:00,2020-02-25 21:00
1582686041601.0,-3.3454054594039917,1.4162826538085938,8.501718521118164,2020-02-25 21:00:41.601000-06:00,2020-02-25 21:00
1582686041651.0,-3.803783416748047,2.2592620849609375,8.947163581848145,2020-02-25 21:00:41.651000-06:00,2020-02-25 21:00
1582686041701.0,-3.0000228881835938,2.910488337278366,9.694496154785156,2020-02-25 21:00:41.701000-06:00,2020-02-25 21:00
1582686041751.0,-3.559680938720703,2.2351837158203125,9.128868103027344,2020-02-25 21:00:41.751000-06:00,2020-02-25 21:00
1582686041801.0,-3.418231964111328,1.0922927856445312,8.460397720336914,2020-02-25 21:00:41.801000-06:00,2020-02-25 21:00
1582686041851.0,-3.7155075073242188,2.701812744140625,8.339790344238281,2020-02-25 21:00:41.851000-06:00,2020-02-25 21:00
1582686041901.0,-2.6155967712402344,3.0947113037109375,10.635345458984375,2020-02-25 21:00:41.901000-06:00,2020-02-25 21:00
1582686041951.0,-2.6320247650146484,3.8904762268066406,9.677671432495117,2020-02-25 21:00:41.951000-06:00,2020-02-25 21:00
1582686042001.0,-3.1877822875976562,2.7334518432617188,9.477649688720703,2020-02-25 21:00:42.001000-06:00,2020-02-25 21:00
1582686042051.0,-2.8182220458984375,1.8935012817382812,9.364622116088867,2020-02-25 21:00:42.051000-06:00,2020-02-25 21:00
1582686042101.0,-2.3924756050109863,1.5524673461914062,9.84176254272461,2020-02-25 21:00:42.101000-06:00,2020-02-25 21:00
1582686042151.0,-3.3519287109375,2.0402374267578125,9.791915893554688,2020-02-25 21:00:42.151000-06:00,2020-02-25 21:00
1582686042201.0,-3.5447120666503906,1.2170982360839844,9.791458129882812,2020-02-25 21:00:42.201000-06:00,2020-02-25 21:00
1582686042251.0,-3.334266424179077,0.06114959716796875,9.308406829833984,2020-02-25 21:00:42.251000-06:00,2020-02-25 21:00
1582686042301.0,-3.4867401123046875,-0.2447509765625,8.250534057617188,2020-02-25 21:00:42.301000-06:00,2020-02-25 21:00
1582686042351.0,-2.1453800201416016,-1.2730255126953125,6.9742279052734375,2020-02-25 21:00:42.351000-06:00,2020-02-25 21:00
1582686042401.0,-6.322540283203125,-2.386444091796875,12.424072265625,2020-02-25 21:00:42.401000-06:00,2020-02-25 21:00
1582686042451.0,-5.435455322265625,0.7937774658203125,7.9263916015625,2020-02-25 21:00:42.451000-06:00,2020-02-25 21:00
1582686042501.0,-2.7925186157226562,0.271759033203125,8.18231201171875,2020-02-25 21:00:42.501000-06:00,2020-02-25 21:00
1582686042551.0,-2.6842422485351562,0.4792823791503906,8.550106048583984,2020-02-25 21:00:42.551000-06:00,2020-02-25 21:00
1582686042601.0,-6.7307281494140625,-0.2810478210449219,8.230072021484375,2020-02-25 21:00:42.601000-06:00,2020-02-25 21:00
1582686042651.0,-4.6092681884765625,-4.44256591796875,8.102142333984375,2020-02-25 21:00:42.651000-06:00,2020-02-25 21:00
1582686042701.0,-6.267677307128906,-1.59210205078125,9.391403198242188,2020-02-25 21:00:42.701000-06:00,2020-02-25 21:00
1582686042751.0,-4.088489532470703,-1.9416122436523438,8.713485717773438,2020-02-25 21:00:42.751000-06:00,2020-02-25 21:00
1582686042801.0,-4.599609375,-2.5327415466308594,9.010017395019531,2020-02-25 21:00:42.801000-06:00,2020-02-25 21:00
1582686042851.0,-4.219762802124023,-1.7710494995117188,8.936027526855469,2020-02-25 21:00:42.851000-06:00,2020-02-25 21:00
1582686042901.0,-4.318709373474121,-1.0914077758789062,8.79568600654602,2020-02-25 21:00:42.901000-06:00,2020-02-25 21:00
1582686042951.0,-4.152090072631836,-1.1285743713378906,9.157127380371094,2020-02-25 21:00:42.951000-06:00,2020-02-25 21:00
1582686043001.0,-3.363731026649475,-0.9958648681640625,9.39212703704834,2020-02-25 21:00:43.001000-06:00,2020-02-25 21:00
1582686043051.0,-3.862712860107422,-1.4169940948486328,9.436565399169922,2020-02-25 21:00:43.051000-06:00,2020-02-25 21:00
1582686043101.0,-4.013877868652344,-2.0916900634765625,8.96285343170166,2020-02-25 21:00:43.101000-06:00,2020-02-25 21:00
1582686043151.0,-4.235816955566406,-2.7455406188964844,8.672996520996094,2020-02-25 21:00:43.151000-06:00,2020-02-25 21:00
1582686043201.0,-3.7377166748046875,-3.73075008392334,7.288617134094238,2020-02-25 21:00:43.201000-06:00,2020-02-25 21:00
1582686043251.0,-4.0270843505859375,-5.157440185546875,8.66469955444336,2020-02-25 21:00:43.251000-06:00,2020-02-25 21:00
1582686043301.0,-2.5488128662109375,-2.9404754638671875,7.4294891357421875,2020-02-25 21:00:43.301000-06:00,2020-02-25 21:00
1582686043351.0,-3.3499584197998047,-5.588043212890625,7.618259787559509,2020-02-25 21:00:43.351000-06:00,2020-02-25 21:00
1582686043401.0,-3.170055389404297,-3.9945526123046875,8.017350196838379,2020-02-25 21:00:43.401000-06:00,2020-02-25 21:00
1582686043451.0,-2.419544219970703,-3.7329635620117188,8.035552978515625,2020-02-25 21:00:43.451000-06:00,2020-02-25 21:00
1582686043501.0,-2.8969688415527344,-4.208221435546875,8.457645416259766,2020-02-25 21:00:43.501000-06:00,2020-02-25 21:00
1582686043551.0,-3.042255401611328,-2.799558639526367,8.847633361816406,2020-02-25 21:00:43.551000-06:00,2020-02-25 21:00
1582686043601.0,-1.2271270751953125,-4.707733154296875,8.486036539077759,2020-02-25 21:00:43.601000-06:00,2020-02-25 21:00
1582686043651.0,-2.5152587890625,-6.116725921630859,8.920097351074219,2020-02-25 21:00:43.651000-06:00,2020-02-25 21:00
1582686043701.0,-1.3953742980957031,-1.2253952026367188,8.948698043823242,2020-02-25 21:00:43.701000-06:00,2020-02-25 21:00
1582686043751.0,-1.0581817626953125,-1.3239288330078125,10.150779724121094,2020-02-25 21:00:43.751000-06:00,2020-02-25 21:00
1582686043801.0,-0.767333984375,3.9335949999999995,9.810302734375,2020-02-25 21:00:43.801000-06:00,2020-02-25 21:00
1582686043851.0,-4.20526123046875,0.518218994140625,9.632156372070312,2020-02-25 21:00:43.851000-06:00,2020-02-25 21:00
1582686043901.0,-1.3581008911132812,0.903289794921875,9.528915405273438,2020-02-25 21:00:43.901000-06:00,2020-02-25 21:00
1582686043951.0,-2.086334228515625,2.5523529052734375,9.164794921875,2020-02-25 21:00:43.951000-06:00,2020-02-25 21:00
1582686044001.0,2.87493896484375,-0.659759521484375,12.902496337890625,2020-02-25 21:00:44.001000-06:00,2020-02-25 21:00
1582686044051.0,4.010223388671875,4.547800064086914,9.113533020019531,2020-02-25 21:00:44.051000-06:00,2020-02-25 21:00
1582686044101.0,2.742034912109375,3.8950271606445312,8.04034423828125,2020-02-25 21:00:44.101000-06:00,2020-02-25 21:00
1582686044151.0,4.9765625,5.176860809326172,8.732643127441406,2020-02-25 21:00:44.151000-06:00,2020-02-25 21:00
1582686044201.0,1.766357421875,5.489471435546875,9.0941162109375,2020-02-25 21:00:44.201000-06:00,2020-02-25 21:00
1582686044251.0,0.44188690185546875,4.261299133300781,8.313438415527344,2020-02-25 21:00:44.251000-06:00,2020-02-25 21:00
1582686044301.0,3.90191650390625,6.2513427734375,8.798881530761719,2020-02-25 21:00:44.301000-06:00,2020-02-25 21:00
1582686044351.0,-0.5539398193359375,5.0582275390625,9.468903541564941,2020-02-25 21:00:44.351000-06:00,2020-02-25 21:00
1582686044401.0,0.5533905029296875,5.88531494140625,8.49453353881836,2020-02-25 21:00:44.401000-06:00,2020-02-25 21:00
1582686044451.0,0.558074951171875,4.4947357177734375,8.06597900390625,2020-02-25 21:00:44.451000-06:00,2020-02-25 21:00
1582686044501.0,1.4930191040039062,5.235950469970703,7.714559078216553,2020-02-25 21:00:44.501000-06:00,2020-02-25 21:00
1582686044551.0,-0.73431396484375,4.438566207885742,8.740432739257812,2020-02-25 21:00:44.551000-06:00,2020-02-25 21:00
1582686044601.0,2.294605255126953,4.716575622558594,8.421005249023438,2020-02-25 21:00:44.601000-06:00,2020-02-25 21:00
1582686044651.0,-0.2413177490234375,4.738716125488281,9.403743743896484,2020-02-25 21:00:44.651000-06:00,2020-02-25 21:00
1582686044701.0,1.073333740234375,5.013008117675781,8.902725219726562,2020-02-25 21:00:44.701000-06:00,2020-02-25 21:00
1582686044751.0,1.96588134765625,5.587928771972656,8.734329223632812,2020-02-25 21:00:44.751000-06:00,2020-02-25 21:00
1582686044801.0,1.777130126953125,5.005344390869141,8.768579006195068,2020-02-25 21:00:44.801000-06:00,2020-02-25 21:00
1582686044851.0,2.39715576171875,6.153539657592773,8.479750156402588,2020-02-25 21:00:44.851000-06:00,2020-02-25 21:00
1582686044901.0,0.7786865234375,6.2715911865234375,8.003936767578125,2020-02-25 21:00:44.901000-06:00,2020-02-25 21:00
1582686044951.0,1.446075439453125,6.3604736328125,7.968479156494141,2020-02-25 21:00:44.951000-06:00,2020-02-25 21:00
1582686045001.0,0.6081275939941406,6.319984436035156,6.887632369995117,2020-02-25 21:00:45.001000-06:00,2020-02-25 21:00
1582686045051.0,0.059078216552734375,8.44671630859375,6.119392395019531,2020-02-25 21:00:45.051000-06:00,2020-02-25 21:00
1582686045101.0,-1.2210845947265625,8.485382080078125,5.49700927734375,2020-02-25 21:00:45.101000-06:00,2020-02-25 21:00
1582686045151.0,-1.9932632446289062,7.47186279296875,6.612266540527344,2020-02-25 21:00:45.151000-06:00,2020-02-25 21:00
1582686045201.0,-1.3104267120361328,7.782203674316406,5.7321624755859375,2020-02-25 21:00:45.201000-06:00,2020-02-25 21:00
1582686045251.0,-0.5415878295898438,7.017799377441406,6.583038330078125,2020-02-25 21:00:45.251000-06:00,2020-02-25 21:00
1582686045301.0,-0.79541015625,6.81585693359375,6.701751708984375,2020-02-25 21:00:45.301000-06:00,2020-02-25 21:00
1582686045351.0,-1.2210769653320312,6.724353790283203,7.086944580078125,2020-02-25 21:00:45.351000-06:00,2020-02-25 21:00
1582686045401.0,-1.67095947265625,6.208721160888672,7.300018310546875,2020-02-25 21:00:45.401000-06:00,2020-02-25 21:00
1582686045451.0,-0.040069580078125,5.9553985595703125,7.41033935546875,2020-02-25 21:00:45.451000-06:00,2020-02-25 21:00
1582686045501.0,-1.7296066284179688,6.801692008972168,7.802509307861328,2020-02-25 21:00:45.501000-06:00,2020-02-25 21:00
1582686045551.0,-0.6159727573394775,7.015405654907227,7.662097454071045,2020-02-25 21:00:45.551000-06:00,2020-02-25 21:00
1582686045601.0,-1.4117565155029297,7.084636688232422,7.77923583984375,2020-02-25 21:00:45.601000-06:00,2020-02-25 21:00
1582686045651.0,-1.3168964385986328,7.396690368652344,7.053743362426758,2020-02-25 21:00:45.651000-06:00,2020-02-25 21:00
1582686045701.0,-1.7020950317382812,7.289571762084961,6.606639862060547,2020-02-25 21:00:45.701000-06:00,2020-02-25 21:00
1582686045751.0,-2.0674057006835938,7.610687255859375,5.977821350097656,2020-02-25 21:00:45.751000-06:00,2020-02-25 21:00
1582686045801.0,-1.8425369262695312,7.528215408325195,6.137407302856445,2020-02-25 21:00:45.801000-06:00,2020-02-25 21:00
1582686045851.0,-1.4045677185058594,7.497380256652832,5.8786468505859375,2020-02-25 21:00:45.851000-06:00,2020-02-25 21:00
1582686045901.0,-1.8470191955566406,7.9593525826931,6.018305778503418,2020-02-25 21:00:45.901000-06:00,2020-02-25 21:00
1582686045951.0,-1.6485013961791992,7.857879638671875,6.181553095579147,2020-02-25 21:00:45.951000-06:00,2020-02-25 21:00
1582686046001.0,-1.5768089294433594,7.992769956588745,6.094003677368164,2020-02-25 21:00:46.001000-06:00,2020-02-25 21:00
1582686046051.0,-1.4201316833496094,7.807346820831299,6.2040252685546875,2020-02-25 21:00:46.051000-06:00,2020-02-25 21:00
1582686046101.0,-1.6989782452583313,7.918509483337402,6.252106189727783,2020-02-25 21:00:46.101000-06:00,2020-02-25 21:00
1582686046151.0,-1.1755619049072266,7.859821319580078,6.123946905136108,2020-02-25 21:00:46.151000-06:00,2020-02-25 21:00
1582686046201.0,-1.5588415265083313,7.742441177368164,6.180240631103516,2020-02-25 21:00:46.201000-06:00,2020-02-25 21:00
1582686046251.0,-1.2162847518920898,7.79993200302124,6.176648139953613,2020-02-25 21:00:46.251000-06:00,2020-02-25 21:00
1582686046301.0,-1.3576202392578125,7.750823974609375,6.133528709411621,2020-02-25 21:00:46.301000-06:00,2020-02-25 21:00
1582686046351.0,-1.4901714324951172,7.836891174316406,6.205165863037109,2020-02-25 21:00:46.351000-06:00,2020-02-25 21:00
1582686046401.0,-1.3712739944458008,7.740882873535156,6.281331539154053,2020-02-25 21:00:46.401000-06:00,2020-02-25 21:00
1582686046451.0,-1.4462532997131348,7.795141220092773,6.207789421081543,2020-02-25 21:00:46.451000-06:00,2020-02-25 21:00
1582686046501.0,-1.3606138229370117,7.815622538328171,6.228151321411133,2020-02-25 21:00:46.501000-06:00,2020-02-25 21:00
1582686046551.0,-1.4236154556274414,7.764239072799683,6.301573276519775,2020-02-25 21:00:46.551000-06:00,2020-02-25 21:00
1582686046601.0,-1.3196337223052979,7.7479153871536255,6.306689381599426,2020-02-25 21:00:46.601000-06:00,2020-02-25 21:00
1582686046651.0,-1.3942365646362305,7.8298187255859375,6.308514595031738,2020-02-25 21:00:46.651000-06:00,2020-02-25 21:00
1582686046701.0,-1.3997802734375,7.683990001678467,6.266718745231628,2020-02-25 21:00:46.701000-06:00,2020-02-25 21:00
1582686046751.0,-1.3515682220458984,7.86309814453125,6.2845713794231415,2020-02-25 21:00:46.751000-06:00,2020-02-25 21:00
1582686046801.0,-1.4055290222167969,7.753458023071289,6.2858827114105225,2020-02-25 21:00:46.801000-06:00,2020-02-25 21:00
1582686046851.0,-1.3159379959106445,7.816940069198608,6.254980564117432,2020-02-25 21:00:46.851000-06:00,2020-02-25 21:00
1582686046901.0,-1.2656326293945312,7.720401763916016,6.260491371154785,2020-02-25 21:00:46.901000-06:00,2020-02-25 21:00
1582686046951.0,-1.3918750286102295,7.810472011566162,6.2233604192733765,2020-02-25 21:00:46.951000-06:00,2020-02-25 21:00
1582686047001.0,-1.257009506225586,7.828173875808716,6.208293914794922,2020-02-25 21:00:47.001000-06:00,2020-02-25 21:00
1582686047051.0,-1.3853387832641602,7.763314247131348,6.235851049423218,2020-02-25 21:00:47.051000-06:00,2020-02-25 21:00
1582686047101.0,-1.2942581176757812,7.798734426498413,6.292830467224121,2020-02-25 21:00:47.101000-06:00,2020-02-25 21:00
1582686047151.0,-1.2322978973388672,7.772068977355957,6.252673625946045,2020-02-25 21:00:47.151000-06:00,2020-02-25 21:00
1582686047201.0,-1.2685070037841797,7.843050956726074,6.230307340621948,2020-02-25 21:00:47.201000-06:00,2020-02-25 21:00
1582686047251.0,-1.240365982055664,7.855784893035889,6.244604110717773,2020-02-25 21:00:47.251000-06:00,2020-02-25 21:00
1582686047301.0,-1.2386436462402344,7.853431463241577,6.188169240951538,2020-02-25 21:00:47.301000-06:00,2020-02-25 21:00
1582686047351.0,-1.2696170806884766,7.803966581821442,6.189255714416504,2020-02-25 21:00:47.351000-06:00,2020-02-25 21:00
1582686047401.0,-1.3495502471923828,7.8839006423950195,6.159375190734863,2020-02-25 21:00:47.401000-06:00,2020-02-25 21:00
1582686047451.0,-1.2248029708862305,7.919708251953125,6.113566637039185,2020-02-25 21:00:47.451000-06:00,2020-02-25 21:00
1582686047501.0,-1.2946510314941406,7.8407697677612305,6.120867013931274,2020-02-25 21:00:47.501000-06:00,2020-02-25 21:00
1582686047551.0,-1.2125201225280762,7.840312957763672,6.228664398193359,2020-02-25 21:00:47.551000-06:00,2020-02-25 21:00
1582686047601.0,-1.486497402191162,7.637038230895996,6.374517440795898,2020-02-25 21:00:47.601000-06:00,2020-02-25 21:00
1582686047651.0,-1.2639551162719727,7.307178497314453,6.619815826416016,2020-02-25 21:00:47.651000-06:00,2020-02-25 21:00
1582686047701.0,-1.5976486206054688,7.175664901733398,6.756838321685791,2020-02-25 21:00:47.701000-06:00,2020-02-25 21:00
1582686047751.0,-1.3755874633789062,7.522053956985474,6.80402946472168,2020-02-25 21:00:47.751000-06:00,2020-02-25 21:00
1582686047801.0,-1.6297483444213867,7.320831298828125,6.729529142379761,2020-02-25 21:00:47.801000-06:00,2020-02-25 21:00
1582686047851.0,-1.6618480682373047,7.219423294067383,6.8681488037109375,2020-02-25 21:00:47.851000-06:00,2020-02-25 21:00
1582686047901.0,-1.5953445434570312,7.33155632019043,6.893586874008179,2020-02-25 21:00:47.901000-06:00,2020-02-25 21:00
1582686047951.0,-1.3743858337402344,7.650213241577148,6.84475302696228,2020-02-25 21:00:47.951000-06:00,2020-02-25 21:00
1582686048001.0,-1.4387242794036865,7.092800140380859,6.609320640563965,2020-02-25 21:00:48.001000-06:00,2020-02-25 21:00
1582686048051.0,-1.3935508728027344,7.625179290771484,6.380744934082031,2020-02-25 21:00:48.051000-06:00,2020-02-25 21:00
1582686048101.0,-1.5865097045898438,7.3917388916015625,6.551424026489258,2020-02-25 21:00:48.101000-06:00,2020-02-25 21:00
1582686048151.0,-1.449127197265625,7.024509429931641,6.369485855102539,2020-02-25 21:00:48.151000-06:00,2020-02-25 21:00
1582686048201.0,-1.946554183959961,7.403955936431885,6.514293670654297,2020-02-25 21:00:48.201000-06:00,2020-02-25 21:00
1582686048251.0,-1.6300230026245117,7.762173652648926,6.59757137298584,2020-02-25 21:00:48.251000-06:00,2020-02-25 21:00
1582686048301.0,-1.6081199645996094,7.559355735778809,6.696813583374023,2020-02-25 21:00:48.301000-06:00,2020-02-25 21:00
1582686048351.0,-1.4635009765625,7.623623847961426,6.546992301940918,2020-02-25 21:00:48.351000-06:00,2020-02-25 21:00
1582686048401.0,-1.4944028854370117,7.729265213012695,6.284206390380859,2020-02-25 21:00:48.401000-06:00,2020-02-25 21:00
1582686048451.0,-1.547343134880066,7.650452613830566,6.138319969177246,2020-02-25 21:00:48.451000-06:00,2020-02-25 21:00
1582686048501.0,-1.4965591430664062,7.737169981002808,6.128618478775024,2020-02-25 21:00:48.501000-06:00,2020-02-25 21:00
1582686048551.0,-1.4675731658935547,7.668898582458496,6.263125658035278,2020-02-25 21:00:48.551000-06:00,2020-02-25 21:00
1582686048601.0,-1.4558353424072266,7.789870738983154,6.324211120605469,2020-02-25 21:00:48.601000-06:00,2020-02-25 21:00
1582686048651.0,-1.4849402904510498,7.6660237312316895,6.352118492126465,2020-02-25 21:00:48.651000-06:00,2020-02-25 21:00
1582686048701.0,-1.4244542121887207,7.710100889205933,6.331876516342163,2020-02-25 21:00:48.701000-06:00,2020-02-25 21:00
1582686048751.0,-1.456433892250061,7.731181621551514,6.303489804267883,2020-02-25 21:00:48.751000-06:00,2020-02-25 21:00
1582686048801.0,-1.45391845703125,7.842691421508789,6.223480224609375,2020-02-25 21:00:48.801000-06:00,2020-02-25 21:00
1582686048851.0,-1.3960672616958618,7.792865753173828,6.21246063709259,2020-02-25 21:00:48.851000-06:00,2020-02-25 21:00
1582686048901.0,-1.4397509098052979,7.794114589691162,6.189994215965271,2020-02-25 21:00:48.901000-06:00,2020-02-25 21:00
1582686048951.0,-1.471690982580185,7.842594861984253,6.114251136779785,2020-02-25 21:00:48.951000-06:00,2020-02-25 21:00
1582686049001.0,-1.4534395,7.884972095489502,6.087774991989136,2020-02-25 21:00:49.001000-06:00,2020-02-25 21:00
1582686049051.0,-1.4381093978881836,7.8981475830078125,6.14502739906311,2020-02-25 21:00:49.051000-06:00,2020-02-25 21:00
1582686049101.0,-1.4860172271728516,7.895991802215576,6.142631530761719,2020-02-25 21:00:49.101000-06:00,2020-02-25 21:00
1582686049151.0,-1.3969740867614746,7.890276908874512,6.107178688049316,2020-02-25 21:00:49.151000-06:00,2020-02-25 21:00
1582686049201.0,-1.4347546100616455,7.869400978088379,6.088733196258545,2020-02-25 21:00:49.201000-06:00,2020-02-25 21:00
