Time,accX,accY,accZ,DT,Hour
1583287200001.0,-2.729275703430176,-6.164160251617432,6.371555328369141,2020-03-03 20:00:00.001000-06:00,2020-03-03 20:00
1583287200051.0,-2.8479790687561035,-4.8726654052734375,7.393898010253906,2020-03-03 20:00:00.051000-06:00,2020-03-03 20:00
1583287200101.0,-2.826996088027954,-5.317996978759766,7.508237838745117,2020-03-03 20:00:00.101000-06:00,2020-03-03 20:00
1583287200151.0,-2.647388458251953,-6.5489959716796875,6.916553497314453,2020-03-03 20:00:00.151000-06:00,2020-03-03 20:00
1583287200201.0,-2.7130603790283203,-6.902408123016357,6.431295394897461,2020-03-03 20:00:00.201000-06:00,2020-03-03 20:00
1583287200251.0,-2.9400243759155273,-6.269496917724609,6.090944290161133,2020-03-03 20:00:00.251000-06:00,2020-03-03 20:00
1583287200301.0,-2.666545867919922,-7.98980712890625,4.2438507080078125,2020-03-03 20:00:00.301000-06:00,2020-03-03 20:00
1583287200351.0,-2.663137435913086,-8.777240753173828,3.0407257080078125,2020-03-03 20:00:00.351000-06:00,2020-03-03 20:00
1583287200401.0,-2.87615966796875,-7.493263244628906,2.7486720085144043,2020-03-03 20:00:00.401000-06:00,2020-03-03 20:00
1583287200451.0,-2.5445613861083984,-10.648468017578125,-0.83770751953125,2020-03-03 20:00:00.451000-06:00,2020-03-03 20:00
1583287200501.0,-2.281338691711426,-11.405527114868164,-1.9291257858276367,2020-03-03 20:00:00.501000-06:00,2020-03-03 20:00
1583287200551.0,-2.2753870487213135,-8.156539916992188,2.235809326171875,2020-03-03 20:00:00.551000-06:00,2020-03-03 20:00
1583287200601.0,-2.57476806640625,-5.9730224609375,6.7012481689453125,2020-03-03 20:00:00.601000-06:00,2020-03-03 20:00
1583287200651.0,-3.017953872680664,-5.4810380935668945,8.114089965820312,2020-03-03 20:00:00.651000-06:00,2020-03-03 20:00
1583287200701.0,-3.3562698364257812,-4.5326385498046875,8.432088851928711,2020-03-03 20:00:00.701000-06:00,2020-03-03 20:00
1583287200751.0,-3.297513008117676,-3.6244354248046875,8.419639110565186,2020-03-03 20:00:00.751000-06:00,2020-03-03 20:00
1583287200801.0,-3.2123939990997314,-3.4537816047668457,8.000570297241211,2020-03-03 20:00:00.801000-06:00,2020-03-03 20:00
1583287200851.0,-3.122180938720703,-2.36895751953125,8.336383819580078,2020-03-03 20:00:00.851000-06:00,2020-03-03 20:00
1583287200901.0,-2.9296951293945312,-1.9143428802490234,8.224748611450195,2020-03-03 20:00:00.901000-06:00,2020-03-03 20:00
1583287200951.0,-3.005143165588379,-3.2040863037109375,8.381507873535156,2020-03-03 20:00:00.951000-06:00,2020-03-03 20:00
1583287201001.0,-3.308115005493164,-4.482795715332031,8.334095001220703,2020-03-03 20:00:01.001000-06:00,2020-03-03 20:00
1583287201051.0,-3.5860252380371094,-4.270595550537109,8.514810562133789,2020-03-03 20:00:01.051000-06:00,2020-03-03 20:00
1583287201101.0,-3.7579469680786133,-4.1107683181762695,8.373017311096191,2020-03-03 20:00:01.101000-06:00,2020-03-03 20:00
1583287201151.0,-3.560110092163086,-3.0571136474609375,8.849090576171875,2020-03-03 20:00:01.151000-06:00,2020-03-03 20:00
1583287201201.0,-3.3266735076904297,-2.3439884185791016,8.870138168334961,2020-03-03 20:00:01.201000-06:00,2020-03-03 20:00
1583287201251.0,-3.396291732788086,-2.069851875305176,8.94990348815918,2020-03-03 20:00:01.251000-06:00,2020-03-03 20:00
1583287201301.0,-3.258908271789551,-2.014211893081665,8.711069107055664,2020-03-03 20:00:01.301000-06:00,2020-03-03 20:00
1583287201351.0,-3.085399627685547,-1.8747377395629883,8.700723648071289,2020-03-03 20:00:01.351000-06:00,2020-03-03 20:00
1583287201401.0,-2.963439464569092,-2.4140243530273438,8.841357231140137,2020-03-03 20:00:01.401000-06:00,2020-03-03 20:00
1583287201451.0,-2.7364702224731445,-2.2387924194335938,9.404411315917969,2020-03-03 20:00:01.451000-06:00,2020-03-03 20:00
1583287201501.0,-2.4742679595947266,-1.3855934143066406,9.836870193481445,2020-03-03 20:00:01.501000-06:00,2020-03-03 20:00
1583287201551.0,-2.4162634313106537,-2.0081710815429688,9.39883041381836,2020-03-03 20:00:01.551000-06:00,2020-03-03 20:00
1583287201601.0,-2.4049062728881836,-1.979928970336914,9.238403022289276,2020-03-03 20:00:01.601000-06:00,2020-03-03 20:00
1583287201651.0,-2.2576093673706055,-4.002532958984375,7.1988067626953125,2020-03-03 20:00:01.651000-06:00,2020-03-03 20:00
1583287201701.0,-2.5209503173828125,-8.560546875,6.001312255859375,2020-03-03 20:00:01.701000-06:00,2020-03-03 20:00
1583287201751.0,-3.7934951782226562,-9.94720458984375,4.6338958740234375,2020-03-03 20:00:01.751000-06:00,2020-03-03 20:00
1583287201801.0,-5.129356384277344,-12.92578125,2.9986648559570312,2020-03-03 20:00:01.801000-06:00,2020-03-03 20:00
1583287201851.0,-5.83106803894043,-12.357955932617188,3.355701446533203,2020-03-03 20:00:01.851000-06:00,2020-03-03 20:00
1583287201901.0,-5.778140068054199,-10.01220703125,3.3854141235351562,2020-03-03 20:00:01.901000-06:00,2020-03-03 20:00
1583287201951.0,-5.516942977905273,-6.096832275390625,3.9453659057617188,2020-03-03 20:00:01.951000-06:00,2020-03-03 20:00
1583287202001.0,-5.197593688964844,-3.8667373657226562,4.039024353027344,2020-03-03 20:00:02.001000-06:00,2020-03-03 20:00
1583287202051.0,-5.201538562774658,-2.6929092407226562,3.862295150756836,2020-03-03 20:00:02.051000-06:00,2020-03-03 20:00
1583287202101.0,-5.528888702392578,-2.0358409881591797,3.740266799926758,2020-03-03 20:00:02.101000-06:00,2020-03-03 20:00
1583287202151.0,-6.63385009765625,-2.002399444580078,3.4415111541748047,2020-03-03 20:00:02.151000-06:00,2020-03-03 20:00
1583287202201.0,-7.4313812255859375,-2.1785240173339844,3.458268642425537,2020-03-03 20:00:02.201000-06:00,2020-03-03 20:00
1583287202251.0,-7.775557518005371,-2.5898876190185547,3.304274559020996,2020-03-03 20:00:02.251000-06:00,2020-03-03 20:00
1583287202301.0,-7.672258377075195,-2.320934295654297,3.5582809448242188,2020-03-03 20:00:02.301000-06:00,2020-03-03 20:00
1583287202351.0,-6.916343688964844,-1.5595130920410156,3.8625450134277344,2020-03-03 20:00:02.351000-06:00,2020-03-03 20:00
1583287202401.0,-5.774871826171875,-0.73760986328125,3.657236099243164,2020-03-03 20:00:02.401000-06:00,2020-03-03 20:00
1583287202451.0,-4.581001281738281,-0.21938705444335938,3.211923599243164,2020-03-03 20:00:02.451000-06:00,2020-03-03 20:00
1583287202501.0,-4.030866622924805,-1.1258087158203125,2.5133705139160156,2020-03-03 20:00:02.501000-06:00,2020-03-03 20:00
1583287202551.0,-3.0818099975585938,-3.8511199951171875,1.847900390625,2020-03-03 20:00:02.551000-06:00,2020-03-03 20:00
1583287202601.0,-2.202045440673828,-8.2630615234375,0.8179931640625,2020-03-03 20:00:02.601000-06:00,2020-03-03 20:00
1583287202651.0,-1.0513839721679688,-11.690658569335938,-0.6950149536132812,2020-03-03 20:00:02.651000-06:00,2020-03-03 20:00
1583287202701.0,0.34076690673828125,-14.328018188476562,-1.6575431823730469,2020-03-03 20:00:02.701000-06:00,2020-03-03 20:00
1583287202751.0,0.9311618804931641,-15.218379974365234,-1.4006576538085938,2020-03-03 20:00:02.751000-06:00,2020-03-03 20:00
1583287202801.0,1.4363784790039062,-15.969356536865234,-1.674774169921875,2020-03-03 20:00:02.801000-06:00,2020-03-03 20:00
1583287202851.0,1.6732697486877441,-12.464019775390625,-2.129199981689453,2020-03-03 20:00:02.851000-06:00,2020-03-03 20:00
1583287202901.0,2.0330562591552734,-7.235809326171875,-2.0258216857910156,2020-03-03 20:00:02.901000-06:00,2020-03-03 20:00
1583287202951.0,2.791820526123047,-7.384666442871094,-2.071411609649658,2020-03-03 20:00:02.951000-06:00,2020-03-03 20:00
1583287203001.0,3.140535354614258,-9.837173461914062,-2.29958438873291,2020-03-03 20:00:03.001000-06:00,2020-03-03 20:00
1583287203051.0,2.9835472106933594,-9.601333618164062,-1.4353713989257812,2020-03-03 20:00:03.051000-06:00,2020-03-03 20:00
1583287203101.0,2.8321638107299805,-8.645591735839844,-0.6942901611328125,2020-03-03 20:00:03.101000-06:00,2020-03-03 20:00
1583287203151.0,2.932278633117676,-8.930908203125,-0.5610738396644592,2020-03-03 20:00:03.151000-06:00,2020-03-03 20:00
1583287203201.0,3.018601655960083,-9.161082744598389,-0.7224512100219727,2020-03-03 20:00:03.201000-06:00,2020-03-03 20:00
1583287203251.0,3.0375344157218933,-9.05935001373291,-1.0010738372802734,2020-03-03 20:00:03.251000-06:00,2020-03-03 20:00
1583287203301.0,3.028660535812378,-8.922770023345947,-0.6672859191894531,2020-03-03 20:00:03.301000-06:00,2020-03-03 20:00
1583287203351.0,3.0108234882354736,-9.101110458374023,-0.7876625061035156,2020-03-03 20:00:03.351000-06:00,2020-03-03 20:00
1583287203401.0,2.858218193054199,-9.01467227935791,-0.8556255102157593,2020-03-03 20:00:03.401000-06:00,2020-03-03 20:00
1583287203451.0,2.835521101951599,-9.104935646057129,-1.0958385467529297,2020-03-03 20:00:03.451000-06:00,2020-03-03 20:00
1583287203501.0,2.9200186729431152,-9.196165323257446,-1.1843607425689697,2020-03-03 20:00:03.501000-06:00,2020-03-03 20:00
1583287203551.0,2.9373010993003845,-9.023545265197754,-0.9629077911376953,2020-03-03 20:00:03.551000-06:00,2020-03-03 20:00
1583287203601.0,2.96333909034729,-9.039608478546143,-0.9511380195617676,2020-03-03 20:00:03.601000-06:00,2020-03-03 20:00
1583287203651.0,2.9821990728378296,-9.047075510025024,-0.9546752572059631,2020-03-03 20:00:03.651000-06:00,2020-03-03 20:00
1583287203701.0,2.985354539938271,-9.058049440383911,-0.9770629405975342,2020-03-03 20:00:03.701000-06:00,2020-03-03 20:00
1583287203751.0,2.999621272087097,-9.04837691783905,-0.8910717964172363,2020-03-03 20:00:03.751000-06:00,2020-03-03 20:00
1583287203801.0,3.0039686639793217,-9.020589590072632,-0.8116183280944824,2020-03-03 20:00:03.801000-06:00,2020-03-03 20:00
1583287203851.0,3.0157310366630554,-9.041666269302368,-0.894294261932373,2020-03-03 20:00:03.851000-06:00,2020-03-03 20:00
1583287203901.0,3.004093647003174,-9.019545555114746,-0.8614711761474609,2020-03-03 20:00:03.901000-06:00,2020-03-03 20:00
1583287203951.0,2.997895173728466,-9.038724422454834,-0.8416150882840157,2020-03-03 20:00:03.951000-06:00,2020-03-03 20:00
1583287204001.0,3.0141760110855103,-9.05969113111496,-0.769345760345459,2020-03-03 20:00:04.001000-06:00,2020-03-03 20:00
1583287204051.0,3.056861400604248,-9.019892692565918,-0.7848732471466064,2020-03-03 20:00:04.051000-06:00,2020-03-03 20:00
1583287204101.0,3.0319409370422363,-9.034242391586304,-0.8113069534301758,2020-03-03 20:00:04.101000-06:00,2020-03-03 20:00
1583287204151.0,3.017907500267029,-9.061312794685364,-0.8305176496505737,2020-03-03 20:00:04.151000-06:00,2020-03-03 20:00
1583287204201.0,3.0086352229118347,-9.011350154876709,-0.777313232421875,2020-03-03 20:00:04.201000-06:00,2020-03-03 20:00
1583287204251.0,3.003088414669037,-9.04893684387207,-0.844792366027832,2020-03-03 20:00:04.251000-06:00,2020-03-03 20:00
1583287204301.0,2.9891234636306763,-9.06111192703247,-0.7610187530517578,2020-03-03 20:00:04.301000-06:00,2020-03-03 20:00
1583287204351.0,3.007960081100464,-9.012881755828857,-0.7595691680908203,2020-03-03 20:00:04.351000-06:00,2020-03-03 20:00
1583287204401.0,2.972747802734375,-9.073141098022461,-0.8665070533752441,2020-03-03 20:00:04.401000-06:00,2020-03-03 20:00
1583287204451.0,2.9532142281532288,-9.007978439331055,-0.7323007583618164,2020-03-03 20:00:04.451000-06:00,2020-03-03 20:00
1583287204501.0,2.9397146701812744,-9.200613021850586,-0.7978544235229492,2020-03-03 20:00:04.501000-06:00,2020-03-03 20:00
1583287204551.0,2.8283615112304688,-9.024604797363281,-0.5103321075439453,2020-03-03 20:00:04.551000-06:00,2020-03-03 20:00
1583287204601.0,2.8150371313095093,-9.134143829345703,-0.6219854354858398,2020-03-03 20:00:04.601000-06:00,2020-03-03 20:00
1583287204651.0,2.768531560897827,-9.233008861541748,-0.9700241088867188,2020-03-03 20:00:04.651000-06:00,2020-03-03 20:00
1583287204701.0,2.7596531808376312,-9.087421417236328,-0.8583345413208008,2020-03-03 20:00:04.701000-06:00,2020-03-03 20:00
1583287204751.0,2.8390207290649414,-9.15849494934082,-0.6980104446411133,2020-03-03 20:00:04.751000-06:00,2020-03-03 20:00
1583287204801.0,2.8316338062286377,-9.077349662780762,-0.7632155418395996,2020-03-03 20:00:04.801000-06:00,2020-03-03 20:00
1583287204851.0,2.8546338081359863,-9.14570665359497,-0.8019654750823975,2020-03-03 20:00:04.851000-06:00,2020-03-03 20:00
1583287204901.0,2.9348087310791016,-9.13637924194336,-0.6305322647094727,2020-03-03 20:00:04.901000-06:00,2020-03-03 20:00
1583287204951.0,3.0039103031158447,-8.979592323303223,-0.4566688537597656,2020-03-03 20:00:04.951000-06:00,2020-03-03 20:00
1583287205001.0,3.0130408704280853,-9.070788383483887,-0.36032629013061523,2020-03-03 20:00:05.001000-06:00,2020-03-03 20:00
1583287205051.0,2.9504623413085938,-8.995664596557617,-0.4382963180541992,2020-03-03 20:00:05.051000-06:00,2020-03-03 20:00
1583287205101.0,2.9507511854171753,-9.134925842285156,-0.6558237075805664,2020-03-03 20:00:05.101000-06:00,2020-03-03 20:00
1583287205151.0,2.9696526527404785,-9.069234848022461,-0.5537376403808594,2020-03-03 20:00:05.151000-06:00,2020-03-03 20:00
1583287205201.0,2.97734397649765,-9.059475421905518,-0.5514228343963623,2020-03-03 20:00:05.201000-06:00,2020-03-03 20:00
1583287205251.0,2.9783581140218303,-9.153441905975342,-0.4723339080810547,2020-03-03 20:00:05.251000-06:00,2020-03-03 20:00
1583287205301.0,2.9746116399765015,-9.04242992401123,-0.6042728424072266,2020-03-03 20:00:05.301000-06:00,2020-03-03 20:00
1583287205351.0,2.9658843874931335,-9.024174094200134,-0.5511283874511719,2020-03-03 20:00:05.351000-06:00,2020-03-03 20:00
1583287205401.0,2.949642777442932,-9.035433769226074,-0.5736033916473389,2020-03-03 20:00:05.401000-06:00,2020-03-03 20:00
1583287205451.0,2.9357378482818604,-9.19117546081543,-0.7419195175170898,2020-03-03 20:00:05.451000-06:00,2020-03-03 20:00
1583287205501.0,2.8787789344787598,-9.08387279510498,-0.7024784088134766,2020-03-03 20:00:05.501000-06:00,2020-03-03 20:00
1583287205551.0,2.8998210430145264,-9.072587013244629,-0.5520877838134766,2020-03-03 20:00:05.551000-06:00,2020-03-03 20:00
1583287205601.0,2.8857197761535645,-9.051918506622314,-0.6031703948974609,2020-03-03 20:00:05.601000-06:00,2020-03-03 20:00
1583287205651.0,2.8442864418029785,-9.02441143989563,-0.8340110778808594,2020-03-03 20:00:05.651000-06:00,2020-03-03 20:00
1583287205701.0,2.853811264038086,-9.154743194580078,-0.9843621253967285,2020-03-03 20:00:05.701000-06:00,2020-03-03 20:00
1583287205751.0,2.7996978759765625,-9.133899688720703,-1.1417713165283203,2020-03-03 20:00:05.751000-06:00,2020-03-03 20:00
1583287205801.0,2.821099042892456,-9.040453433990479,-1.2826719284057617,2020-03-03 20:00:05.801000-06:00,2020-03-03 20:00
1583287205851.0,2.8612983226776123,-9.071132898330688,-1.3064374327659607,2020-03-03 20:00:05.851000-06:00,2020-03-03 20:00
1583287205901.0,2.846771001815796,-9.039786577224731,-1.1046810150146484,2020-03-03 20:00:05.901000-06:00,2020-03-03 20:00
1583287205951.0,2.8791189193725586,-9.089889526367188,-1.1339411735534668,2020-03-03 20:00:05.951000-06:00,2020-03-03 20:00
1583287206001.0,2.926703929901123,-9.091705918312073,-1.273615837097168,2020-03-03 20:00:06.001000-06:00,2020-03-03 20:00
1583287206051.0,2.9355375915765762,-9.002575874328613,-1.3005027770996094,2020-03-03 20:00:06.051000-06:00,2020-03-03 20:00
1583287206101.0,2.9945316314697266,-9.083771705627441,-1.2539701461791992,2020-03-03 20:00:06.101000-06:00,2020-03-03 20:00
1583287206151.0,3.0043399930000305,-8.966141700744629,-0.9993572235107422,2020-03-03 20:00:06.151000-06:00,2020-03-03 20:00
1583287206201.0,2.9894100427627563,-8.963995456695557,-0.7691774368286133,2020-03-03 20:00:06.201000-06:00,2020-03-03 20:00
1583287206251.0,3.042295455932617,-9.025346279144287,-0.9596576690673828,2020-03-03 20:00:06.251000-06:00,2020-03-03 20:00
1583287206301.0,3.1051783561706543,-8.993438482284546,-1.0475273132324219,2020-03-03 20:00:06.301000-06:00,2020-03-03 20:00
1583287206351.0,3.0983868837356567,-8.992050886154175,-0.9715514183044434,2020-03-03 20:00:06.351000-06:00,2020-03-03 20:00
1583287206401.0,3.086228162050247,-9.006329119205475,-0.971400260925293,2020-03-03 20:00:06.401000-06:00,2020-03-03 20:00
1583287206451.0,3.0884864926338196,-9.005326509475708,-0.9506716728210449,2020-03-03 20:00:06.451000-06:00,2020-03-03 20:00
1583287206501.0,3.0638386011123657,-9.001283958554268,-0.946852058172226,2020-03-03 20:00:06.501000-06:00,2020-03-03 20:00
1583287206551.0,3.0526577532291412,-9.003853440284729,-0.9348351955413818,2020-03-03 20:00:06.551000-06:00,2020-03-03 20:00
1583287206601.0,3.1357269287109375,-9.021732568740845,-0.9278207123279572,2020-03-03 20:00:06.601000-06:00,2020-03-03 20:00
1583287206651.0,3.1589570343494415,-8.946342468261719,-0.8378348350524902,2020-03-03 20:00:06.651000-06:00,2020-03-03 20:00
1583287206701.0,3.147664248943329,-8.990973472595215,-0.8516416549682617,2020-03-03 20:00:06.701000-06:00,2020-03-03 20:00
1583287206751.0,3.1454316154122353,-9.014925599098206,-0.9825258255004883,2020-03-03 20:00:06.751000-06:00,2020-03-03 20:00
1583287206801.0,3.1526634097099304,-8.979828834533691,-0.9598913192749023,2020-03-03 20:00:06.801000-06:00,2020-03-03 20:00
1583287206851.0,3.1843395233154297,-8.994580030441284,-0.89925217628479,2020-03-03 20:00:06.851000-06:00,2020-03-03 20:00
1583287206901.0,3.1177616119384766,-9.0002943277359,-0.8749731779098511,2020-03-03 20:00:06.901000-06:00,2020-03-03 20:00
1583287206951.0,3.0890338718891144,-8.979528427124023,-0.9949579238891602,2020-03-03 20:00:06.951000-06:00,2020-03-03 20:00
1583287207001.0,3.1545004844665527,-9.022003173828125,-1.156991958618164,2020-03-03 20:00:07.001000-06:00,2020-03-03 20:00
1583287207051.0,3.1594741344451904,-8.949073314666748,-1.0633668899536133,2020-03-03 20:00:07.051000-06:00,2020-03-03 20:00
1583287207101.0,3.16642826795578,-8.936983942985535,-1.0066953897476196,2020-03-03 20:00:07.101000-06:00,2020-03-03 20:00
1583287207151.0,3.1809410452842712,-8.91847848892212,-1.1354961395263672,2020-03-03 20:00:07.151000-06:00,2020-03-03 20:00
1583287207201.0,3.1920759677886963,-8.982475757598877,-1.4283714294433594,2020-03-03 20:00:07.201000-06:00,2020-03-03 20:00
1583287207251.0,3.2225165367126465,-8.98743212223053,-1.5075249373912811,2020-03-03 20:00:07.251000-06:00,2020-03-03 20:00
1583287207301.0,3.1797399520874023,-8.9198637008667,-1.4353208541870117,2020-03-03 20:00:07.301000-06:00,2020-03-03 20:00
1583287207351.0,3.1131739616394043,-8.951848030090332,-1.5954170227050781,2020-03-03 20:00:07.351000-06:00,2020-03-03 20:00
1583287207401.0,3.1316473484039307,-8.965651705861092,-1.5258569717407227,2020-03-03 20:00:07.401000-06:00,2020-03-03 20:00
1583287207451.0,3.1821327209472656,-9.010799884796143,-1.4138617515563965,2020-03-03 20:00:07.451000-06:00,2020-03-03 20:00
1583287207501.0,3.1213021278381348,-8.966272354125977,-1.3502483367919922,2020-03-03 20:00:07.501000-06:00,2020-03-03 20:00
1583287207551.0,3.0369582176208496,-8.996171236038208,-1.3051261901855469,2020-03-03 20:00:07.551000-06:00,2020-03-03 20:00
1583287207601.0,3.091818332672119,-8.902486801147461,-1.1529874801635742,2020-03-03 20:00:07.601000-06:00,2020-03-03 20:00
1583287207651.0,3.1974387168884277,-8.944807529449463,-1.2288732528686523,2020-03-03 20:00:07.651000-06:00,2020-03-03 20:00
1583287207701.0,3.208132803440094,-8.844742774963379,-0.9961223602294922,2020-03-03 20:00:07.701000-06:00,2020-03-03 20:00
1583287207751.0,3.1757073402404785,-8.919294357299805,-1.011244773864746,2020-03-03 20:00:07.751000-06:00,2020-03-03 20:00
1583287207801.0,3.16748,-9.001226425170898,-1.2069272994995117,2020-03-03 20:00:07.801000-06:00,2020-03-03 20:00
1583287207851.0,3.097137451171875,-8.99354088306427,-1.1528491973876953,2020-03-03 20:00:07.851000-06:00,2020-03-03 20:00
1583287207901.0,2.925826072692871,-9.096027374267578,-1.0718472003936768,2020-03-03 20:00:07.901000-06:00,2020-03-03 20:00
1583287207951.0,2.819505214691162,-9.062525749206543,-1.194662094116211,2020-03-03 20:00:07.951000-06:00,2020-03-03 20:00
1583287208001.0,2.911346435546875,-9.00146746635437,-1.152726173400879,2020-03-03 20:00:08.001000-06:00,2020-03-03 20:00
1583287208051.0,2.9016358852386475,-9.070424556732178,-1.039492130279541,2020-03-03 20:00:08.051000-06:00,2020-03-03 20:00
1583287208101.0,2.7760581970214844,-9.094686195254326,-1.2557907104492188,2020-03-03 20:00:08.101000-06:00,2020-03-03 20:00
1583287208151.0,2.880308151245117,-9.003557682037354,-0.728546142578125,2020-03-03 20:00:08.151000-06:00,2020-03-03 20:00
1583287208201.0,2.9422730207443237,-9.17561149597168,-0.9752349853515625,2020-03-03 20:00:08.201000-06:00,2020-03-03 20:00
1583287208251.0,2.838228225708008,-9.037418365478516,-0.6240921020507812,2020-03-03 20:00:08.251000-06:00,2020-03-03 20:00
1583287208301.0,2.875546932220459,-8.96018397808075,-0.35356807708740234,2020-03-03 20:00:08.301000-06:00,2020-03-03 20:00
1583287208351.0,2.868677854537964,-9.028518676757812,-0.846832275390625,2020-03-03 20:00:08.351000-06:00,2020-03-03 20:00
1583287208401.0,2.737957000732422,-9.072788953781128,-0.7693195343017578,2020-03-03 20:00:08.401000-06:00,2020-03-03 20:00
1583287208451.0,2.6383705139160156,-9.12503695487976,-0.9058437347412109,2020-03-03 20:00:08.451000-06:00,2020-03-03 20:00
1583287208501.0,2.566577911376953,-9.128385841846466,-1.7177886962890625,2020-03-03 20:00:08.501000-06:00,2020-03-03 20:00
1583287208551.0,2.620664596557617,-9.044802188873291,-1.7895870208740234,2020-03-03 20:00:08.551000-06:00,2020-03-03 20:00
1583287208601.0,2.58492374420166,-8.97554326057434,-1.7806413173675537,2020-03-03 20:00:08.601000-06:00,2020-03-03 20:00
1583287208651.0,2.5690919924527407,-8.98902678489685,-1.823491096496582,2020-03-03 20:00:08.651000-06:00,2020-03-03 20:00
1583287208701.0,2.553997755050659,-9.008072078227997,-2.139446258544922,2020-03-03 20:00:08.701000-06:00,2020-03-03 20:00
1583287208751.0,2.5879812240600586,-8.97200059890747,-2.108426094055176,2020-03-03 20:00:08.751000-06:00,2020-03-03 20:00
1583287208801.0,2.5735085010528564,-8.875701904296875,-2.017897605895996,2020-03-03 20:00:08.801000-06:00,2020-03-03 20:00
1583287208851.0,2.5676723271608353,-8.907450675964355,-2.2655487060546875,2020-03-03 20:00:08.851000-06:00,2020-03-03 20:00
1583287208901.0,2.605135202407837,-8.819646835327148,-2.171750068664551,2020-03-03 20:00:08.901000-06:00,2020-03-03 20:00
1583287208951.0,2.5579638481140137,-8.783771306276321,-2.1296355724334717,2020-03-03 20:00:08.951000-06:00,2020-03-03 20:00
1583287209001.0,2.5358436703681946,-8.88022518157959,-2.4636917114257812,2020-03-03 20:00:09.001000-06:00,2020-03-03 20:00
1583287209051.0,2.542782783508301,-8.802591323852539,-2.4347829818725586,2020-03-03 20:00:09.051000-06:00,2020-03-03 20:00
1583287209101.0,2.5171914100646973,-8.800989151000977,-2.492170810699463,2020-03-03 20:00:09.101000-06:00,2020-03-03 20:00
1583287209151.0,2.54701566696167,-8.856656789779663,-2.667856216430664,2020-03-03 20:00:09.151000-06:00,2020-03-03 20:00
1583287209201.0,2.486649990081787,-8.628498077392578,-2.9735279083251953,2020-03-03 20:00:09.201000-06:00,2020-03-03 20:00
1583287209251.0,2.4987292289733887,-8.741618156433105,-3.312807083129883,2020-03-03 20:00:09.251000-06:00,2020-03-03 20:00
1583287209301.0,2.467592239379883,-8.666487693786621,-3.457019329071045,2020-03-03 20:00:09.301000-06:00,2020-03-03 20:00
1583287209351.0,2.491903066635132,-8.564927101135254,-3.2858657836914062,2020-03-03 20:00:09.351000-06:00,2020-03-03 20:00
1583287209401.0,2.5259050130844116,-8.648125171661377,-3.2981605529785156,2020-03-03 20:00:09.401000-06:00,2020-03-03 20:00
1583287209451.0,2.4920504093170166,-8.585216045379639,-3.6205787658691406,2020-03-03 20:00:09.451000-06:00,2020-03-03 20:00
1583287209501.0,2.5043699741363525,-8.539934039115906,-3.4464664459228516,2020-03-03 20:00:09.501000-06:00,2020-03-03 20:00
1583287209551.0,2.5959839820861816,-8.469923973083496,-3.2970428466796875,2020-03-03 20:00:09.551000-06:00,2020-03-03 20:00
1583287209601.0,2.620339259505272,-8.525864601135254,-3.322810411453247,2020-03-03 20:00:09.601000-06:00,2020-03-03 20:00
1583287209651.0,2.619062900543213,-8.627004623413086,-3.2770657539367676,2020-03-03 20:00:09.651000-06:00,2020-03-03 20:00
1583287209701.0,2.478635787963867,-8.628715515136719,-3.007291793823242,2020-03-03 20:00:09.701000-06:00,2020-03-03 20:00
1583287209751.0,2.3863296508789062,-8.54642105102539,-2.938290774822235,2020-03-03 20:00:09.751000-06:00,2020-03-03 20:00
1583287209801.0,2.354094982147217,-8.694225311279297,-3.3391952514648438,2020-03-03 20:00:09.801000-06:00,2020-03-03 20:00
1583287209851.0,2.3359798789024353,-8.640923500061035,-3.1621017456054688,2020-03-03 20:00:09.851000-06:00,2020-03-03 20:00
1583287209901.0,2.26212215423584,-8.38686752319336,-3.157726764678955,2020-03-03 20:00:09.901000-06:00,2020-03-03 20:00
1583287209951.0,2.244130313396454,-8.36384129524231,-4.542198181152344,2020-03-03 20:00:09.951000-06:00,2020-03-03 20:00
1583287210001.0,2.322824001312256,-8.182333946228027,-4.736141204833984,2020-03-03 20:00:10.001000-06:00,2020-03-03 20:00
1583287210051.0,2.4406023025512695,-8.163976192474365,-4.268819808959961,2020-03-03 20:00:10.051000-06:00,2020-03-03 20:00
1583287210101.0,2.455114722251892,-8.198134183883667,-4.164782404899597,2020-03-03 20:00:10.101000-06:00,2020-03-03 20:00
1583287210151.0,2.4116671085357666,-8.179868459701538,-4.262385845184326,2020-03-03 20:00:10.151000-06:00,2020-03-03 20:00
1583287210201.0,2.42146897315979,-8.216613531112671,-4.193234443664551,2020-03-03 20:00:10.201000-06:00,2020-03-03 20:00
1583287210251.0,2.4727656841278076,-8.237818241119385,-4.025511741638184,2020-03-03 20:00:10.251000-06:00,2020-03-03 20:00
1583287210301.0,2.4681856632232666,-8.248903632164001,-4.123045921325684,2020-03-03 20:00:10.301000-06:00,2020-03-03 20:00
1583287210351.0,2.459629327058792,-8.249003648757935,-4.093061447143555,2020-03-03 20:00:10.351000-06:00,2020-03-03 20:00
1583287210401.0,2.4540732204914093,-8.304790019989014,-4.037853717803955,2020-03-03 20:00:10.401000-06:00,2020-03-03 20:00
1583287210451.0,2.4720362424850464,-8.278887510299683,-3.9833409786224365,2020-03-03 20:00:10.451000-06:00,2020-03-03 20:00
1583287210501.0,2.4955074787139893,-8.308724164962769,-3.9558820724487305,2020-03-03 20:00:10.501000-06:00,2020-03-03 20:00
1583287210551.0,2.511002838611603,-8.313911020755768,-3.8178415298461914,2020-03-03 20:00:10.551000-06:00,2020-03-03 20:00
1583287210601.0,2.5401980876922607,-8.337219953536987,-3.764372408390045,2020-03-03 20:00:10.601000-06:00,2020-03-03 20:00
1583287210651.0,2.5647698640823364,-8.37231731414795,-3.8064820766448975,2020-03-03 20:00:10.651000-06:00,2020-03-03 20:00
1583287210701.0,2.560977280139923,-8.362858653068542,-3.7553606033325195,2020-03-03 20:00:10.701000-06:00,2020-03-03 20:00
1583287210751.0,2.564417988061905,-8.405669927597046,-3.7547420263290405,2020-03-03 20:00:10.751000-06:00,2020-03-03 20:00
1583287210801.0,2.5788175463676453,-8.38417911529541,-3.7328248023986816,2020-03-03 20:00:10.801000-06:00,2020-03-03 20:00
1583287210851.0,2.5881908237934113,-8.374928429722786,-3.6805906295776367,2020-03-03 20:00:10.851000-06:00,2020-03-03 20:00
1583287210901.0,2.5827930569648743,-8.405604839324951,-3.6980273723602295,2020-03-03 20:00:10.901000-06:00,2020-03-03 20:00
1583287210951.0,2.5567516088485718,-8.378702163696289,-3.612696647644043,2020-03-03 20:00:10.951000-06:00,2020-03-03 20:00
1583287211001.0,2.5568262338638306,-8.462794780731201,-3.5886015594005585,2020-03-03 20:00:11.001000-06:00,2020-03-03 20:00
1583287211051.0,2.5997297763824463,-8.447886943817139,-3.5703405141830444,2020-03-03 20:00:11.051000-06:00,2020-03-03 20:00
1583287211101.0,2.6326764822006226,-8.440106898546219,-3.513667106628418,2020-03-03 20:00:11.101000-06:00,2020-03-03 20:00
1583287211151.0,2.623713970184326,-8.472628593444824,-3.5554375648498535,2020-03-03 20:00:11.151000-06:00,2020-03-03 20:00
1583287211201.0,2.599371075630188,-8.468597829341888,-3.5247597694396973,2020-03-03 20:00:11.201000-06:00,2020-03-03 20:00
1583287211251.0,2.620576858520508,-8.48483407497406,-3.4011058807373047,2020-03-03 20:00:11.251000-06:00,2020-03-03 20:00
1583287211301.0,2.679619789123535,-8.547132015228271,-3.388914465904236,2020-03-03 20:00:11.301000-06:00,2020-03-03 20:00
1583287211351.0,2.6583292484283447,-8.533199548721313,-3.4316556453704834,2020-03-03 20:00:11.351000-06:00,2020-03-03 20:00
1583287211401.0,2.726161479949951,-8.541831970214844,-3.0539512634277344,2020-03-03 20:00:11.401000-06:00,2020-03-03 20:00
1583287211451.0,2.785142660140991,-8.580780267715454,-2.9576741456985474,2020-03-03 20:00:11.451000-06:00,2020-03-03 20:00
1583287211501.0,2.7700183391571045,-8.603887677192688,-3.0321907997131348,2020-03-03 20:00:11.501000-06:00,2020-03-03 20:00
1583287211551.0,2.7656551599502563,-8.650911569595337,-2.985722541809082,2020-03-03 20:00:11.551000-06:00,2020-03-03 20:00
1583287211601.0,2.7370071411132812,-8.614890813827515,-2.9888957738876343,2020-03-03 20:00:11.601000-06:00,2020-03-03 20:00
1583287211651.0,2.744056224822998,-8.639578104019165,-3.015659213066101,2020-03-03 20:00:11.651000-06:00,2020-03-03 20:00
1583287211701.0,2.7105586528778076,-8.609695672988892,-2.940776824951172,2020-03-03 20:00:11.701000-06:00,2020-03-03 20:00
1583287211751.0,2.73885178565979,-8.670650482177734,-2.692220687866211,2020-03-03 20:00:11.751000-06:00,2020-03-03 20:00
1583287211801.0,2.7628540992736816,-8.70111072063446,-2.834930419921875,2020-03-03 20:00:11.801000-06:00,2020-03-03 20:00
1583287211851.0,2.7418378591537476,-8.644834041595459,-2.907070755958557,2020-03-03 20:00:11.851000-06:00,2020-03-03 20:00
1583287211901.0,2.7376717031002045,-8.667760610580444,-2.845592498779297,2020-03-03 20:00:11.901000-06:00,2020-03-03 20:00
1583287211951.0,2.722887635231018,-8.646522521972656,-2.8188393115997314,2020-03-03 20:00:11.951000-06:00,2020-03-03 20:00
1583287212001.0,2.6999430656433105,-8.693246841430664,-2.895420551300049,2020-03-03 20:00:12.001000-06:00,2020-03-03 20:00
1583287212051.0,2.694847553037107,-8.66621708869934,-2.9022237062454224,2020-03-03 20:00:12.051000-06:00,2020-03-03 20:00
1583287212101.0,2.702771246433258,-8.68401312828064,-2.8809670209884644,2020-03-03 20:00:12.101000-06:00,2020-03-03 20:00
1583287212151.0,2.71551650762558,-8.662394285202026,-2.859442353248596,2020-03-03 20:00:12.151000-06:00,2020-03-03 20:00
1583287212201.0,2.717516914010048,-8.658006250858307,-2.8965232372283936,2020-03-03 20:00:12.201000-06:00,2020-03-03 20:00
1583287212251.0,2.713833510875702,-8.67713749408722,-2.865873336791992,2020-03-03 20:00:12.251000-06:00,2020-03-03 20:00
1583287212301.0,2.7191314697265625,-8.689718782901764,-2.866437554359436,2020-03-03 20:00:12.301000-06:00,2020-03-03 20:00
1583287212351.0,2.7201027423143387,-8.660947561264038,-2.914391040802002,2020-03-03 20:00:12.351000-06:00,2020-03-03 20:00
1583287212401.0,2.7148221731185913,-8.699213027954102,-2.7883214950561523,2020-03-03 20:00:12.401000-06:00,2020-03-03 20:00
1583287212451.0,2.692686438560486,-8.698816418647766,-2.7388225197792053,2020-03-03 20:00:12.451000-06:00,2020-03-03 20:00
1583287212501.0,2.688715696334839,-8.710872173309326,-2.8151535987854004,2020-03-03 20:00:12.501000-06:00,2020-03-03 20:00
1583287212551.0,2.7030502557754517,-8.694097638130188,-2.791661024093628,2020-03-03 20:00:12.551000-06:00,2020-03-03 20:00
1583287212601.0,2.7269705533981323,-8.717008113861084,-2.749438762664795,2020-03-03 20:00:12.601000-06:00,2020-03-03 20:00
1583287212651.0,2.7560465335845947,-8.70117461681366,-2.7248507738113403,2020-03-03 20:00:12.651000-06:00,2020-03-03 20:00
1583287212701.0,2.7495726346969604,-8.723855972290039,-2.686410427093506,2020-03-03 20:00:12.701000-06:00,2020-03-03 20:00
1583287212751.0,2.732988178730011,-8.711639046669006,-2.687474846839905,2020-03-03 20:00:12.751000-06:00,2020-03-03 20:00
1583287212801.0,2.7241136729717255,-8.72528088092804,-2.6455342769622803,2020-03-03 20:00:12.801000-06:00,2020-03-03 20:00
1583287212851.0,2.711599051952362,-8.745358228683472,-2.6441497802734375,2020-03-03 20:00:12.851000-06:00,2020-03-03 20:00
1583287212901.0,2.7341634035110474,-8.786341428756714,-2.768789291381836,2020-03-03 20:00:12.901000-06:00,2020-03-03 20:00
1583287212951.0,2.742838479578495,-8.925166130065918,-2.639101028442383,2020-03-03 20:00:12.951000-06:00,2020-03-03 20:00
1583287213001.0,2.7089197635650635,-8.952523410320282,-2.1391830444335938,2020-03-03 20:00:13.001000-06:00,2020-03-03 20:00
1583287213051.0,2.707153081893921,-9.093477249145508,-1.51422119140625,2020-03-03 20:00:13.051000-06:00,2020-03-03 20:00
1583287213101.0,2.679431676864624,-9.081290245056152,-0.7757110595703125,2020-03-03 20:00:13.101000-06:00,2020-03-03 20:00
1583287213151.0,2.7109642028808594,-9.167349338531494,-0.0458831787109375,2020-03-03 20:00:13.151000-06:00,2020-03-03 20:00
1583287213201.0,2.692779064178467,-9.075971603393555,0.6029510498046875,2020-03-03 20:00:13.201000-06:00,2020-03-03 20:00
1583287213251.0,2.7219364643096924,-9.011457324028015,1.152029037475586,2020-03-03 20:00:13.251000-06:00,2020-03-03 20:00
1583287213301.0,2.712728977203369,-9.130404472351074,1.1759495735168457,2020-03-03 20:00:13.301000-06:00,2020-03-03 20:00
1583287213351.0,2.722424030303955,-9.055947303771973,1.2724533081054688,2020-03-03 20:00:13.351000-06:00,2020-03-03 20:00
1583287213401.0,2.7784230709075928,-9.097194194793701,1.2873424291610718,2020-03-03 20:00:13.401000-06:00,2020-03-03 20:00
1583287213451.0,2.837764024734497,-9.055623054504395,1.2867637872695923,2020-03-03 20:00:13.451000-06:00,2020-03-03 20:00
1583287213501.0,2.841787815093994,-9.046434879302979,1.3521394729614258,2020-03-03 20:00:13.501000-06:00,2020-03-03 20:00
1583287213551.0,2.818140745162964,-9.089733600616455,1.3052139282226562,2020-03-03 20:00:13.551000-06:00,2020-03-03 20:00
1583287213601.0,2.796251893043518,-9.131865501403809,1.1333580017089844,2020-03-03 20:00:13.601000-06:00,2020-03-03 20:00
1583287213651.0,2.816001296043396,-9.205336570739746,1.0797020196914673,2020-03-03 20:00:13.651000-06:00,2020-03-03 20:00
1583287213701.0,2.7688302993774414,-9.156102657318115,1.3279571533203125,2020-03-03 20:00:13.701000-06:00,2020-03-03 20:00
1583287213751.0,2.721829652786255,-8.9956693649292,1.6925544738769531,2020-03-03 20:00:13.751000-06:00,2020-03-03 20:00
1583287213801.0,2.739251971244812,-8.910443305969238,2.0669918060302734,2020-03-03 20:00:13.801000-06:00,2020-03-03 20:00
1583287213851.0,2.7867071628570557,-8.955263614654541,2.0370006561279297,2020-03-03 20:00:13.851000-06:00,2020-03-03 20:00
1583287213901.0,2.8354971408843994,-8.894287586212158,2.215648651123047,2020-03-03 20:00:13.901000-06:00,2020-03-03 20:00
1583287213951.0,2.8589441180229187,-8.976444244384766,2.2422494888305664,2020-03-03 20:00:13.951000-06:00,2020-03-03 20:00
1583287214001.0,2.833470344543457,-8.938718795776367,2.1942949295043945,2020-03-03 20:00:14.001000-06:00,2020-03-03 20:00
1583287214051.0,2.8589041233062744,-8.816277503967285,2.4392051696777344,2020-03-03 20:00:14.051000-06:00,2020-03-03 20:00
1583287214101.0,2.8529129028320312,-8.848916053771973,2.3742990493774414,2020-03-03 20:00:14.101000-06:00,2020-03-03 20:00
1583287214151.0,2.799952507019043,-8.881385684013367,2.3708975315093994,2020-03-03 20:00:14.151000-06:00,2020-03-03 20:00
1583287214201.0,2.780345857143402,-8.906156659126282,2.3142776489257812,2020-03-03 20:00:14.201000-06:00,2020-03-03 20:00
1583287214251.0,2.846252918243408,-8.999006748199463,2.0996084213256836,2020-03-03 20:00:14.251000-06:00,2020-03-03 20:00
1583287214301.0,2.8335695266723633,-8.91923475265503,2.142177104949951,2020-03-03 20:00:14.301000-06:00,2020-03-03 20:00
1583287214351.0,2.838895082473755,-8.967525005340576,2.13051700592041,2020-03-03 20:00:14.351000-06:00,2020-03-03 20:00
1583287214401.0,2.788665771484375,-8.92883825302124,2.1387109756469727,2020-03-03 20:00:14.401000-06:00,2020-03-03 20:00
1583287214451.0,2.764441967010498,-8.955322504043579,2.095559597015381,2020-03-03 20:00:14.451000-06:00,2020-03-03 20:00
1583287214501.0,2.7564678490161896,-8.980583131313324,2.1369271278381348,2020-03-03 20:00:14.501000-06:00,2020-03-03 20:00
1583287214551.0,2.75430203974247,-8.965212106704712,2.0340404510498047,2020-03-03 20:00:14.551000-06:00,2020-03-03 20:00
1583287214601.0,2.779963970184326,-9.00072956085205,2.027125120162964,2020-03-03 20:00:14.601000-06:00,2020-03-03 20:00
1583287214651.0,2.772842288017273,-8.993794560432434,2.0355421900749207,2020-03-03 20:00:14.651000-06:00,2020-03-03 20:00
1583287214701.0,2.7503446340560913,-8.948859930038452,2.073745012283325,2020-03-03 20:00:14.701000-06:00,2020-03-03 20:00
1583287214751.0,2.741414189338684,-9.000205993652344,1.9678335189819336,2020-03-03 20:00:14.751000-06:00,2020-03-03 20:00
1583287214801.0,2.7264468669891357,-8.986295461654663,1.9652130603790283,2020-03-03 20:00:14.801000-06:00,2020-03-03 20:00
1583287214851.0,2.7199032604694366,-9.043334484100342,1.9117722511291504,2020-03-03 20:00:14.851000-06:00,2020-03-03 20:00
1583287214901.0,2.741486668586731,-8.995095252990723,1.857961654663086,2020-03-03 20:00:14.901000-06:00,2020-03-03 20:00
1583287214951.0,2.737013876438141,-8.991884231567383,1.8001220226287842,2020-03-03 20:00:14.951000-06:00,2020-03-03 20:00
1583287215001.0,2.6889150142669678,-9.140902519226074,1.8241991996765137,2020-03-03 20:00:15.001000-06:00,2020-03-03 20:00
1583287215051.0,2.6977661848068237,-8.975003242492676,1.937227725982666,2020-03-03 20:00:15.051000-06:00,2020-03-03 20:00
1583287215101.0,2.710448294878006,-9.001114845275879,1.90887451171875,2020-03-03 20:00:15.101000-06:00,2020-03-03 20:00
1583287215151.0,2.6447739601135254,-9.053715109825134,1.8939672708511353,2020-03-03 20:00:15.151000-06:00,2020-03-03 20:00
1583287215201.0,2.5817222595214844,-9.038509607315063,1.9165525436401367,2020-03-03 20:00:15.201000-06:00,2020-03-03 20:00
1583287215251.0,2.5705493688583374,-9.044309139251709,1.8602395057678223,2020-03-03 20:00:15.251000-06:00,2020-03-03 20:00
1583287215301.0,2.5708463173359632,-9.080303192138672,1.7312278747558594,2020-03-03 20:00:15.301000-06:00,2020-03-03 20:00
1583287215351.0,2.5580408573150635,-9.056735754013062,1.703615427017212,2020-03-03 20:00:15.351000-06:00,2020-03-03 20:00
1583287215401.0,2.5784988403320312,-9.23179817199707,1.296854019165039,2020-03-03 20:00:15.401000-06:00,2020-03-03 20:00
1583287215451.0,2.610958218574524,-8.977100372314453,2.0889053344726562,2020-03-03 20:00:15.451000-06:00,2020-03-03 20:00
1583287215501.0,2.6805105209350586,-8.803929328918457,2.6098270416259766,2020-03-03 20:00:15.501000-06:00,2020-03-03 20:00
1583287215551.0,2.801530361175537,-8.877272129058838,2.2123260498046875,2020-03-03 20:00:15.551000-06:00,2020-03-03 20:00
1583287215601.0,2.8428370356559753,-9.036219596862793,1.851907730102539,2020-03-03 20:00:15.601000-06:00,2020-03-03 20:00
1583287215651.0,2.7751455307006836,-9.065418481826782,2.0097274780273438,2020-03-03 20:00:15.651000-06:00,2020-03-03 20:00
1583287215701.0,2.6809206008911133,-8.998115539550781,1.9707832336425781,2020-03-03 20:00:15.701000-06:00,2020-03-03 20:00
1583287215751.0,2.6783546209335327,-9.04667043685913,1.7537002563476562,2020-03-03 20:00:15.751000-06:00,2020-03-03 20:00
1583287215801.0,2.7152562141418457,-9.030532121658325,1.779386043548584,2020-03-03 20:00:15.801000-06:00,2020-03-03 20:00
1583287215851.0,2.7418856620788574,-9.06940221786499,1.7081499099731445,2020-03-03 20:00:15.851000-06:00,2020-03-03 20:00
1583287215901.0,2.7384220957756042,-9.03923487663269,1.9329757690429688,2020-03-03 20:00:15.901000-06:00,2020-03-03 20:00
1583287215951.0,2.698702096939087,-8.99620509147644,1.8430852890014648,2020-03-03 20:00:15.951000-06:00,2020-03-03 20:00
1583287216001.0,2.7002445459365845,-9.077245235443115,1.7486181259155273,2020-03-03 20:00:16.001000-06:00,2020-03-03 20:00
1583287216051.0,2.7369303703308105,-8.98465633392334,1.936605453491211,2020-03-03 20:00:16.051000-06:00,2020-03-03 20:00
1583287216101.0,2.734397292137146,-9.00420618057251,1.8647699356079102,2020-03-03 20:00:16.101000-06:00,2020-03-03 20:00
1583287216151.0,2.71822589635849,-9.037481546401978,1.8050179481506348,2020-03-03 20:00:16.151000-06:00,2020-03-03 20:00
1583287216201.0,2.6990667581558228,-9.04510746896267,1.7974014729261398,2020-03-03 20:00:16.201000-06:00,2020-03-03 20:00
1583287216251.0,2.6867551803588867,-9.076692581176758,1.8080946207046509,2020-03-03 20:00:16.251000-06:00,2020-03-03 20:00
1583287216301.0,2.6962199807167053,-9.033099174499512,1.8826894760131836,2020-03-03 20:00:16.301000-06:00,2020-03-03 20:00
1583287216351.0,2.6933324337005615,-9.011401057243347,1.8485846519470215,2020-03-03 20:00:16.351000-06:00,2020-03-03 20:00
1583287216401.0,2.6988390684127808,-9.045983791351318,1.8719382286071777,2020-03-03 20:00:16.401000-06:00,2020-03-03 20:00
1583287216451.0,2.693295419216156,-9.043824136257172,1.8977323770523071,2020-03-03 20:00:16.451000-06:00,2020-03-03 20:00
1583287216501.0,2.6997312903404236,-9.007336139678955,1.9227253198623657,2020-03-03 20:00:16.501000-06:00,2020-03-03 20:00
1583287216551.0,2.8097305297851562,-9.217279434204102,2.692157745361328,2020-03-03 20:00:16.551000-06:00,2020-03-03 20:00
1583287216601.0,3.353221893310547,-9.257120490074158,4.432182312011719,2020-03-03 20:00:16.601000-06:00,2020-03-03 20:00
1583287216651.0,3.800138473510742,-9.40693473815918,3.1478729248046875,2020-03-03 20:00:16.651000-06:00,2020-03-03 20:00
1583287216701.0,3.0856361389160156,-9.006484985351562,4.147377014160156,2020-03-03 20:00:16.701000-06:00,2020-03-03 20:00
1583287216751.0,3.7600936889648438,-7.0382843017578125,3.6175460815429688,2020-03-03 20:00:16.751000-06:00,2020-03-03 20:00
1583287216801.0,4.618194580078125,-7.177726745605469,0.9287109375,2020-03-03 20:00:16.801000-06:00,2020-03-03 20:00
1583287216851.0,6.9432373046875,-7.714841842651367,-1.1043014526367188,2020-03-03 20:00:16.851000-06:00,2020-03-03 20:00
1583287216901.0,7.981287002563477,-6.998016357421875,-2.20831298828125,2020-03-03 20:00:16.901000-06:00,2020-03-03 20:00
1583287216951.0,8.684764862060547,-8.567276000976562,-1.7710342407226562,2020-03-03 20:00:16.951000-06:00,2020-03-03 20:00
1583287217001.0,10.636505126953125,-11.563140869140625,-2.010009765625,2020-03-03 20:00:17.001000-06:00,2020-03-03 20:00
1583287217051.0,11.924591064453125,-11.855266571044922,-3.837432861328125,2020-03-03 20:00:17.051000-06:00,2020-03-03 20:00
1583287217101.0,11.486251831054688,-10.857025146484375,-6.5889129638671875,2020-03-03 20:00:17.101000-06:00,2020-03-03 20:00
1583287217151.0,8.615463256835938,-10.260658264160156,-12.0045166015625,2020-03-03 20:00:17.151000-06:00,2020-03-03 20:00
1583287217201.0,6.118499755859375,-11.631050109863281,-17.88043212890625,2020-03-03 20:00:17.201000-06:00,2020-03-03 20:00
1583287217251.0,7.735748291015625,-11.635997772216797,-20.507461547851562,2020-03-03 20:00:17.251000-06:00,2020-03-03 20:00
1583287217301.0,12.39129638671875,-11.252450942993164,-17.675445556640625,2020-03-03 20:00:17.301000-06:00,2020-03-03 20:00
1583287217351.0,18.278961181640625,-9.675201416015625,-12.837646484375,2020-03-03 20:00:17.351000-06:00,2020-03-03 20:00
1583287217401.0,20.01974868774414,-7.4952545166015625,-6.514739990234375,2020-03-03 20:00:17.401000-06:00,2020-03-03 20:00
1583287217451.0,18.218017578125,-5.0277862548828125,0.18963623046875,2020-03-03 20:00:17.451000-06:00,2020-03-03 20:00
1583287217501.0,14.45806884765625,-2.7902450561523438,6.166473388671875,2020-03-03 20:00:17.501000-06:00,2020-03-03 20:00
1583287217551.0,9.256072998046875,-1.427886962890625,13.261566162109375,2020-03-03 20:00:17.551000-06:00,2020-03-03 20:00
1583287217601.0,6.3466339111328125,-0.8950557708740234,21.08154296875,2020-03-03 20:00:17.601000-06:00,2020-03-03 20:00
1583287217651.0,4.04913330078125,-0.6499166488647461,26.8359375,2020-03-03 20:00:17.651000-06:00,2020-03-03 20:00
1583287217701.0,3.5366154983639717,-1.3501701354980469,24.006134033203125,2020-03-03 20:00:17.701000-06:00,2020-03-03 20:00
1583287217751.0,6.2541961669921875,-3.0190582275390625,15.87884521484375,2020-03-03 20:00:17.751000-06:00,2020-03-03 20:00
1583287217801.0,10.4405517578125,-5.041694641113281,8.436798095703125,2020-03-03 20:00:17.801000-06:00,2020-03-03 20:00
1583287217851.0,15.7403564453125,-7.197540283203125,2.108123779296875,2020-03-03 20:00:17.851000-06:00,2020-03-03 20:00
1583287217901.0,19.1546630859375,-9.4373779296875,-4.695159912109375,2020-03-03 20:00:17.901000-06:00,2020-03-03 20:00
1583287217951.0,17.0184326171875,-12.213577270507812,-12.570343017578125,2020-03-03 20:00:17.951000-06:00,2020-03-03 20:00
1583287218001.0,9.763702392578125,-14.720169067382812,-19.30584716796875,2020-03-03 20:00:18.001000-06:00,2020-03-03 20:00
1583287218051.0,2.600433349609375,-18.667572021484375,-22.327774047851562,2020-03-03 20:00:18.051000-06:00,2020-03-03 20:00
1583287218101.0,2.3058929443359375,-20.777557373046875,-20.904052734375,2020-03-03 20:00:18.101000-06:00,2020-03-03 20:00
1583287218151.0,7.208160400390625,-18.77801513671875,-15.066314697265625,2020-03-03 20:00:18.151000-06:00,2020-03-03 20:00
1583287218201.0,12.379150390625,-14.563690185546875,-9.81182861328125,2020-03-03 20:00:18.201000-06:00,2020-03-03 20:00
1583287218251.0,15.889923095703125,-9.945892333984375,-5.270172119140625,2020-03-03 20:00:18.251000-06:00,2020-03-03 20:00
1583287218301.0,16.344987869262695,-6.827667236328125,-0.71722412109375,2020-03-03 20:00:18.301000-06:00,2020-03-03 20:00
1583287218351.0,14.974212646484375,-6.048336982727051,5.14447021484375,2020-03-03 20:00:18.351000-06:00,2020-03-03 20:00
1583287218401.0,11.507781982421875,-5.938967227935791,11.78167724609375,2020-03-03 20:00:18.401000-06:00,2020-03-03 20:00
1583287218451.0,8.425079345703125,-6.030681610107422,18.3602294921875,2020-03-03 20:00:18.451000-06:00,2020-03-03 20:00
1583287218501.0,4.96209716796875,-5.945223808288574,22.106765747070312,2020-03-03 20:00:18.501000-06:00,2020-03-03 20:00
1583287218551.0,2.3992156982421875,-4.9986419677734375,21.29846954345703,2020-03-03 20:00:18.551000-06:00,2020-03-03 20:00
1583287218601.0,2.8404464721679688,-3.7790985107421875,15.9150390625,2020-03-03 20:00:18.601000-06:00,2020-03-03 20:00
1583287218651.0,4.835662841796875,-4.7074127197265625,9.73455810546875,2020-03-03 20:00:18.651000-06:00,2020-03-03 20:00
1583287218701.0,7.4851226806640625,-6.584678649902344,4.6768798828125,2020-03-03 20:00:18.701000-06:00,2020-03-03 20:00
1583287218751.0,9.331169128417969,-8.811935424804688,-0.45343017578125,2020-03-03 20:00:18.751000-06:00,2020-03-03 20:00
1583287218801.0,9.154987335205078,-12.023941040039062,-6.7763671875,2020-03-03 20:00:18.801000-06:00,2020-03-03 20:00
1583287218851.0,6.2381134033203125,-15.648696899414062,-14.482391357421875,2020-03-03 20:00:18.851000-06:00,2020-03-03 20:00
1583287218901.0,1.9090576171875,-19.725296020507812,-19.566543579101562,2020-03-03 20:00:18.901000-06:00,2020-03-03 20:00
1583287218951.0,1.4465789794921875,-18.576324462890625,-16.721710205078125,2020-03-03 20:00:18.951000-06:00,2020-03-03 20:00
1583287219001.0,3.71466064453125,-14.967483520507812,-11.726959228515625,2020-03-03 20:00:19.001000-06:00,2020-03-03 20:00
1583287219051.0,5.617774963378906,-11.515365600585938,-6.636016845703125,2020-03-03 20:00:19.051000-06:00,2020-03-03 20:00
1583287219101.0,7.018531799316406,-9.436088562011719,-2.5815582275390625,2020-03-03 20:00:19.101000-06:00,2020-03-03 20:00
1583287219151.0,7.965770721435547,-7.6408843994140625,1.91448974609375,2020-03-03 20:00:19.151000-06:00,2020-03-03 20:00
1583287219201.0,8.376884460449219,-6.211082458496094,6.305145263671875,2020-03-03 20:00:19.201000-06:00,2020-03-03 20:00
1583287219251.0,8.20013427734375,-6.138694763183594,10.688323974609375,2020-03-03 20:00:19.251000-06:00,2020-03-03 20:00
1583287219301.0,6.668212890625,-6.791912078857422,15.39447021484375,2020-03-03 20:00:19.301000-06:00,2020-03-03 20:00
1583287219351.0,4.900733947753906,-6.621660232543945,19.987762451171875,2020-03-03 20:00:19.351000-06:00,2020-03-03 20:00
1583287219401.0,3.2839508056640625,-7.256988525390625,17.937423706054688,2020-03-03 20:00:19.401000-06:00,2020-03-03 20:00
1583287219451.0,3.657917022705078,-6.3965606689453125,13.546875,2020-03-03 20:00:19.451000-06:00,2020-03-03 20:00
1583287219501.0,3.865617126226425,-5.439144134521484,10.04669189453125,2020-03-03 20:00:19.501000-06:00,2020-03-03 20:00
1583287219551.0,4.670162200927734,-5.136268615722656,6.91656494140625,2020-03-03 20:00:19.551000-06:00,2020-03-03 20:00
1583287219601.0,5.855598449707031,-5.324884414672852,3.853363037109375,2020-03-03 20:00:19.601000-06:00,2020-03-03 20:00
1583287219651.0,7.4951019287109375,-5.8028411865234375,1.195953369140625,2020-03-03 20:00:19.651000-06:00,2020-03-03 20:00
1583287219701.0,9.337471008300781,-6.40936279296875,-1.7983856201171875,2020-03-03 20:00:19.701000-06:00,2020-03-03 20:00
1583287219751.0,9.994827270507812,-7.113185882568359,-5.01068115234375,2020-03-03 20:00:19.751000-06:00,2020-03-03 20:00
1583287219801.0,9.254226684570312,-7.683660507202148,-7.73358154296875,2020-03-03 20:00:19.801000-06:00,2020-03-03 20:00
1583287219851.0,7.604026794433594,-8.849472045898438,-9.245002746582031,2020-03-03 20:00:19.851000-06:00,2020-03-03 20:00
1583287219901.0,6.823955535888672,-9.494937896728516,-9.00546646118164,2020-03-03 20:00:19.901000-06:00,2020-03-03 20:00
1583287219951.0,6.771173477172852,-10.287357330322266,-7.10443115234375,2020-03-03 20:00:19.951000-06:00,2020-03-03 20:00
1583287220001.0,7.693229675292969,-10.324980735778809,-4.214691162109375,2020-03-03 20:00:20.001000-06:00,2020-03-03 20:00
1583287220051.0,9.018402099609375,-9.235801696777344,-1.9806594848632812,2020-03-03 20:00:20.051000-06:00,2020-03-03 20:00
1583287220101.0,10.542640686035156,-8.458446502685547,0.22247314453125,2020-03-03 20:00:20.101000-06:00,2020-03-03 20:00
1583287220151.0,10.918278932571411,-9.011306762695312,1.0665264129638672,2020-03-03 20:00:20.151000-06:00,2020-03-03 20:00
1583287220201.0,11.37796401977539,-10.319290161132812,1.4576377868652344,2020-03-03 20:00:20.201000-06:00,2020-03-03 20:00
1583287220251.0,11.55098843574524,-10.755290985107422,2.5139541625976562,2020-03-03 20:00:20.251000-06:00,2020-03-03 20:00
1583287220301.0,11.572360277175903,-10.245281219482422,2.32147216796875,2020-03-03 20:00:20.301000-06:00,2020-03-03 20:00
1583287220351.0,11.090988159179688,-9.667823791503906,1.7904129028320312,2020-03-03 20:00:20.351000-06:00,2020-03-03 20:00
1583287220401.0,10.156051635742188,-8.316505432128906,1.1485519409179688,2020-03-03 20:00:20.401000-06:00,2020-03-03 20:00
1583287220451.0,9.177913665771484,-7.695854187011719,0.9923321008682251,2020-03-03 20:00:20.451000-06:00,2020-03-03 20:00
1583287220501.0,8.487728118896484,-2.988250732421875,2.1566390991210938,2020-03-03 20:00:20.501000-06:00,2020-03-03 20:00
1583287220551.0,7.0737152099609375,-2.2347450256347656,2.332782745361328,2020-03-03 20:00:20.551000-06:00,2020-03-03 20:00
1583287220601.0,6.582378387451172,-6.435943603515625,1.0649948120117188,2020-03-03 20:00:20.601000-06:00,2020-03-03 20:00
1583287220651.0,5.357025146484375,-8.09903335571289,-0.33234405517578125,2020-03-03 20:00:20.651000-06:00,2020-03-03 20:00
1583287220701.0,5.393083572387695,-6.5023345947265625,0.9673385620117188,2020-03-03 20:00:20.701000-06:00,2020-03-03 20:00
1583287220751.0,5.250164031982422,-3.5895843505859375,3.1796722412109375,2020-03-03 20:00:20.751000-06:00,2020-03-03 20:00
1583287220801.0,5.167534172534943,-2.5069541931152344,7.10003662109375,2020-03-03 20:00:20.801000-06:00,2020-03-03 20:00
1583287220851.0,4.597713470458984,-1.989044189453125,8.953502655029297,2020-03-03 20:00:20.851000-06:00,2020-03-03 20:00
1583287220901.0,4.230942726135254,-1.003875732421875,8.883401870727539,2020-03-03 20:00:20.901000-06:00,2020-03-03 20:00
1583287220951.0,4.1673959493637085,0.249542236328125,8.782860517501831,2020-03-03 20:00:20.951000-06:00,2020-03-03 20:00
1583287221001.0,4.510400772094727,1.3664054870605469,9.694557189941406,2020-03-03 20:00:21.001000-06:00,2020-03-03 20:00
1583287221051.0,5.012828826904297,0.27237701416015625,9.424556732177734,2020-03-03 20:00:21.051000-06:00,2020-03-03 20:00
1583287221101.0,4.919759750366211,-0.9215316772460938,8.709739685058594,2020-03-03 20:00:21.101000-06:00,2020-03-03 20:00
1583287221151.0,4.690375328063965,-1.081021785736084,8.871143341064453,2020-03-03 20:00:21.151000-06:00,2020-03-03 20:00
1583287221201.0,4.531676292419434,-1.0378350019454956,8.945592164993286,2020-03-03 20:00:21.201000-06:00,2020-03-03 20:00
1583287221251.0,4.547072172164917,-1.095980167388916,8.860206127166748,2020-03-03 20:00:21.251000-06:00,2020-03-03 20:00
1583287221301.0,4.516501426696777,-1.1028379201889038,8.82263958454132,2020-03-03 20:00:21.301000-06:00,2020-03-03 20:00
1583287221351.0,4.524442076683044,-1.0028982162475586,8.882833480834961,2020-03-03 20:00:21.351000-06:00,2020-03-03 20:00
1583287221401.0,4.568820953369141,-0.9982829093933105,8.779829978942871,2020-03-03 20:00:21.401000-06:00,2020-03-03 20:00
1583287221451.0,4.63104248046875,-0.9149503707885742,8.761835217475891,2020-03-03 20:00:21.451000-06:00,2020-03-03 20:00
1583287221501.0,4.6651893854141235,-0.8035526275634766,8.840970039367676,2020-03-03 20:00:21.501000-06:00,2020-03-03 20:00
1583287221551.0,4.6538461446762085,-0.8072295188903809,8.823364496231079,2020-03-03 20:00:21.551000-06:00,2020-03-03 20:00
1583287221601.0,4.584003925323486,-0.9291095733642578,8.854538917541504,2020-03-03 20:00:21.601000-06:00,2020-03-03 20:00
1583287221651.0,4.578321814537048,-1.0188488960266113,8.855145990848541,2020-03-03 20:00:21.651000-06:00,2020-03-03 20:00
1583287221701.0,4.580558821558952,-1.0315983295440674,8.826752662658691,2020-03-03 20:00:21.701000-06:00,2020-03-03 20:00
1583287221751.0,4.587396502494812,-0.9845590591430664,8.819100517779589,2020-03-03 20:00:21.751000-06:00,2020-03-03 20:00
1583287221801.0,4.567788362503052,-0.9933829307556152,8.82282155752182,2020-03-03 20:00:21.801000-06:00,2020-03-03 20:00
1583287221851.0,4.598731279373169,-0.8944306373596191,8.831187784671783,2020-03-03 20:00:21.851000-06:00,2020-03-03 20:00
1583287221901.0,4.631532549858093,-0.867089033126831,8.810629606246948,2020-03-03 20:00:21.901000-06:00,2020-03-03 20:00
1583287221951.0,4.651414513587952,-0.7678432464599609,8.831133365631104,2020-03-03 20:00:21.951000-06:00,2020-03-03 20:00
1583287222001.0,4.627227544784546,-0.743333101272583,8.81865680217743,2020-03-03 20:00:22.001000-06:00,2020-03-03 20:00
1583287222051.0,4.653685569763184,-0.6830573081970215,8.867242813110352,2020-03-03 20:00:22.051000-06:00,2020-03-03 20:00
1583287222101.0,4.6840211153030396,-0.6853060722351074,8.854943037033081,2020-03-03 20:00:22.101000-06:00,2020-03-03 20:00
1583287222151.0,4.65057897567749,-0.7234320640563965,8.815625190734863,2020-03-03 20:00:22.151000-06:00,2020-03-03 20:00
1583287222201.0,4.649726152420044,-0.7792913913726807,8.802096724510193,2020-03-03 20:00:22.201000-06:00,2020-03-03 20:00
1583287222251.0,4.665529370307922,-0.7588512897491455,8.86076021194458,2020-03-03 20:00:22.251000-06:00,2020-03-03 20:00
1583287222301.0,4.615235805511475,-0.7898654937744141,8.8417809009552,2020-03-03 20:00:22.301000-06:00,2020-03-03 20:00
1583287222351.0,4.6490960121154785,-0.7836780548095703,8.810634970664978,2020-03-03 20:00:22.351000-06:00,2020-03-03 20:00
1583287222401.0,4.680371642112732,-0.76390540599823,8.78360378742218,2020-03-03 20:00:22.401000-06:00,2020-03-03 20:00
1583287222451.0,4.6499927043914795,-0.7609898820519447,8.834801197052002,2020-03-03 20:00:22.451000-06:00,2020-03-03 20:00
1583287222501.0,4.624035596847534,-0.8296346664428711,8.829225420951843,2020-03-03 20:00:22.501000-06:00,2020-03-03 20:00
1583287222551.0,4.631706416606903,-0.807833194732666,8.837803602218628,2020-03-03 20:00:22.551000-06:00,2020-03-03 20:00
1583287222601.0,4.648553133010864,-0.8263444900512695,8.802689552307129,2020-03-03 20:00:22.601000-06:00,2020-03-03 20:00
1583287222651.0,4.672604441642761,-0.7947409152984619,8.821069240570068,2020-03-03 20:00:22.651000-06:00,2020-03-03 20:00
1583287222701.0,4.671474874019623,-0.7691071033477783,8.809416651725769,2020-03-03 20:00:22.701000-06:00,2020-03-03 20:00
1583287222751.0,4.674758434295654,-0.759290486574173,8.818624377250671,2020-03-03 20:00:22.751000-06:00,2020-03-03 20:00
1583287222801.0,4.663590133190155,-0.779549241065979,8.817696899175644,2020-03-03 20:00:22.801000-06:00,2020-03-03 20:00
1583287222851.0,4.659878599457443,-0.803216814994812,8.81999459862709,2020-03-03 20:00:22.851000-06:00,2020-03-03 20:00
1583287222901.0,4.6689934730529785,-0.7905133962631226,8.805210828781128,2020-03-03 20:00:22.901000-06:00,2020-03-03 20:00
1583287222951.0,4.669406428933144,-0.7902308702468872,8.799287840723991,2020-03-03 20:00:22.951000-06:00,2020-03-03 20:00
1583287223001.0,4.672607272863388,-0.8046641945838928,8.78770238161087,2020-03-03 20:00:23.001000-06:00,2020-03-03 20:00
1583287223051.0,4.674032129347324,-0.8057971000671387,8.830445528030396,2020-03-03 20:00:23.051000-06:00,2020-03-03 20:00
1583287223101.0,4.649430990219116,-0.7818119525909424,8.83537632226944,2020-03-03 20:00:23.101000-06:00,2020-03-03 20:00
1583287223151.0,4.648209095001221,-0.7823446393013,8.803643226623535,2020-03-03 20:00:23.151000-06:00,2020-03-03 20:00
1583287223201.0,4.666055202484131,-0.8170406818389893,8.798342227935791,2020-03-03 20:00:23.201000-06:00,2020-03-03 20:00
1583287223251.0,4.656234383583069,-0.8019411563873291,8.815710306167603,2020-03-03 20:00:23.251000-06:00,2020-03-03 20:00
1583287223301.0,4.65818664431572,-0.8101927042007446,8.81506222486496,2020-03-03 20:00:23.301000-06:00,2020-03-03 20:00
1583287223351.0,4.667786180973053,-0.8012529015541077,8.831562161445618,2020-03-03 20:00:23.351000-06:00,2020-03-03 20:00
1583287223401.0,4.669737163931131,-0.7953945696353912,8.783209800720215,2020-03-03 20:00:23.401000-06:00,2020-03-03 20:00
1583287223451.0,4.659783899784088,-0.8111429214477539,8.821913719177246,2020-03-03 20:00:23.451000-06:00,2020-03-03 20:00
1583287223501.0,4.646842002868652,-0.8127205669879913,8.808377742767334,2020-03-03 20:00:23.501000-06:00,2020-03-03 20:00
1583287223551.0,4.653354823589325,-0.7779433727264404,8.85377311706543,2020-03-03 20:00:23.551000-06:00,2020-03-03 20:00
1583287223601.0,4.658948019146919,-0.8094034194946289,8.807501316070557,2020-03-03 20:00:23.601000-06:00,2020-03-03 20:00
1583287223651.0,4.651003003120422,-0.8430671691894531,8.798461019992828,2020-03-03 20:00:23.651000-06:00,2020-03-03 20:00
1583287223701.0,4.65540224313736,-0.8202319145202637,8.808144986629486,2020-03-03 20:00:23.701000-06:00,2020-03-03 20:00
1583287223751.0,4.651995271444321,-0.8389017581939697,8.812739178538322,2020-03-03 20:00:23.751000-06:00,2020-03-03 20:00
1583287223801.0,4.65564838051796,-0.8512815535068512,8.830397367477417,2020-03-03 20:00:23.801000-06:00,2020-03-03 20:00
1583287223851.0,4.644851565361023,-0.8476685583591461,8.817891716957092,2020-03-03 20:00:23.851000-06:00,2020-03-03 20:00
1583287223901.0,4.642673879861832,-0.8103373050689697,8.818868577480316,2020-03-03 20:00:23.901000-06:00,2020-03-03 20:00
1583287223951.0,4.671309471130371,-0.8134032487869263,8.80476689338684,2020-03-03 20:00:23.951000-06:00,2020-03-03 20:00
1583287224001.0,4.681243732571602,-0.796788215637207,8.803403109312057,2020-03-03 20:00:24.001000-06:00,2020-03-03 20:00
1583287224051.0,4.648897409439087,-0.8402085304260254,8.822295069694519,2020-03-03 20:00:24.051000-06:00,2020-03-03 20:00
1583287224101.0,4.6449423134326935,-0.8459126949310303,8.827417837455869,2020-03-03 20:00:24.101000-06:00,2020-03-03 20:00
1583287224151.0,4.663691282272339,-0.8321105241775513,8.807562947273254,2020-03-03 20:00:24.151000-06:00,2020-03-03 20:00
1583287224201.0,4.6639262437820435,-0.8377748131752014,8.801945801824331,2020-03-03 20:00:24.201000-06:00,2020-03-03 20:00
1583287224251.0,4.669105887413025,-0.8401553481817245,8.797432512044907,2020-03-03 20:00:24.251000-06:00,2020-03-03 20:00
1583287224301.0,4.662431180477142,-0.8271393179893494,8.806722402572632,2020-03-03 20:00:24.301000-06:00,2020-03-03 20:00
1583287224351.0,4.657955005764961,-0.8492801189422607,8.809593765065074,2020-03-03 20:00:24.351000-06:00,2020-03-03 20:00
1583287224401.0,4.672111749649048,-0.8272337913513184,8.823273420333862,2020-03-03 20:00:24.401000-06:00,2020-03-03 20:00
1583287224451.0,4.67866724729538,-0.8621244430541992,8.794661521911621,2020-03-03 20:00:24.451000-06:00,2020-03-03 20:00
1583287224501.0,4.665893197059631,-0.8528250455856323,8.79966425895691,2020-03-03 20:00:24.501000-06:00,2020-03-03 20:00
1583287224551.0,4.687634706497192,-0.881047248840332,8.789398431777954,2020-03-03 20:00:24.551000-06:00,2020-03-03 20:00
1583287224601.0,4.650335311889648,-0.9157916307449341,8.830755710601807,2020-03-03 20:00:24.601000-06:00,2020-03-03 20:00
1583287224651.0,4.660790324211121,-0.8947708606719971,8.816406488418579,2020-03-03 20:00:24.651000-06:00,2020-03-03 20:00
1583287224701.0,4.687382817268372,-0.8625169992446899,8.777944087982178,2020-03-03 20:00:24.701000-06:00,2020-03-03 20:00
1583287224751.0,4.686182022094727,-0.8488321602344513,8.817119359970093,2020-03-03 20:00:24.751000-06:00,2020-03-03 20:00
1583287224801.0,4.662309765815735,-0.8972759246826172,8.785502910614014,2020-03-03 20:00:24.801000-06:00,2020-03-03 20:00
1583287224851.0,4.627705097198486,-0.9153353422880173,8.806258916854858,2020-03-03 20:00:24.851000-06:00,2020-03-03 20:00
1583287224901.0,4.649672031402588,-0.8934706449508667,8.820631504058838,2020-03-03 20:00:24.901000-06:00,2020-03-03 20:00
1583287224951.0,4.658950546756387,-0.9192733764648438,8.791512489318848,2020-03-03 20:00:24.951000-06:00,2020-03-03 20:00
1583287225001.0,4.631414175033569,-0.9086648225784302,8.812283039093018,2020-03-03 20:00:25.001000-06:00,2020-03-03 20:00
1583287225051.0,4.641142010688782,-0.8811149597167969,8.820127084851265,2020-03-03 20:00:25.051000-06:00,2020-03-03 20:00
1583287225101.0,4.645854622125626,-0.8931998014450073,8.803780198097229,2020-03-03 20:00:25.101000-06:00,2020-03-03 20:00
1583287225151.0,4.627692818641663,-0.9106020331382751,8.805186033248901,2020-03-03 20:00:25.151000-06:00,2020-03-03 20:00
1583287225201.0,4.621213406324387,-0.9377627372741699,8.833277344703674,2020-03-03 20:00:25.201000-06:00,2020-03-03 20:00
1583287225251.0,4.624328762292862,-0.9112496376037598,8.807876348495483,2020-03-03 20:00:25.251000-06:00,2020-03-03 20:00
1583287225301.0,4.633382141590118,-0.9038900434970856,8.827561140060425,2020-03-03 20:00:25.301000-06:00,2020-03-03 20:00
1583287225351.0,4.618842244148254,-0.9251160621643066,8.843961954116821,2020-03-03 20:00:25.351000-06:00,2020-03-03 20:00
1583287225401.0,4.633579730987549,-0.8978416919708252,8.790303230285645,2020-03-03 20:00:25.401000-06:00,2020-03-03 20:00
1583287225451.0,4.639501095749438,-0.8719538450241089,8.813754558563232,2020-03-03 20:00:25.451000-06:00,2020-03-03 20:00
1583287225501.0,4.622121214866638,-0.909254789352417,8.812916040420532,2020-03-03 20:00:25.501000-06:00,2020-03-03 20:00
1583287225551.0,4.626691937446594,-0.9272516369819641,8.821438252925873,2020-03-03 20:00:25.551000-06:00,2020-03-03 20:00
1583287225601.0,4.6514458656311035,-0.8760824203491211,8.834148645401001,2020-03-03 20:00:25.601000-06:00,2020-03-03 20:00
1583287225651.0,4.65070515871048,-0.8839865922927856,8.801528453826904,2020-03-03 20:00:25.651000-06:00,2020-03-03 20:00
1583287225701.0,4.629497647285461,-0.9091682434082031,8.827256679534912,2020-03-03 20:00:25.701000-06:00,2020-03-03 20:00
1583287225751.0,4.632146656513214,-0.9110006392002106,8.804250001907349,2020-03-03 20:00:25.751000-06:00,2020-03-03 20:00
1583287225801.0,4.647290050983429,-0.896550178527832,8.813770651817322,2020-03-03 20:00:25.801000-06:00,2020-03-03 20:00
1583287225851.0,4.6331833600997925,-0.8884314596652985,8.819154921919107,2020-03-03 20:00:25.851000-06:00,2020-03-03 20:00
1583287225901.0,4.612639427185059,-0.8919178247451782,8.816555678844452,2020-03-03 20:00:25.901000-06:00,2020-03-03 20:00
1583287225951.0,4.614269942045212,-0.8657975196838379,8.809539645910263,2020-03-03 20:00:25.951000-06:00,2020-03-03 20:00
1583287226001.0,4.652740478515625,-0.8911254405975342,8.806450359523296,2020-03-03 20:00:26.001000-06:00,2020-03-03 20:00
1583287226051.0,4.63543963432312,-0.9029822200536728,8.836331605911255,2020-03-03 20:00:26.051000-06:00,2020-03-03 20:00
1583287226101.0,4.622742116451263,-0.9029433280229568,8.801750421524048,2020-03-03 20:00:26.101000-06:00,2020-03-03 20:00
1583287226151.0,4.644322514533997,-0.8802571296691895,8.829553842544556,2020-03-03 20:00:26.151000-06:00,2020-03-03 20:00
1583287226201.0,4.631220102310181,-0.8747255504131317,8.807315111160278,2020-03-03 20:00:26.201000-06:00,2020-03-03 20:00
1583287226251.0,4.627426818013191,-0.8852516412734985,8.81847596168518,2020-03-03 20:00:26.251000-06:00,2020-03-03 20:00
1583287226301.0,4.628886297345161,-0.8781136274337769,8.820129603147507,2020-03-03 20:00:26.301000-06:00,2020-03-03 20:00
1583287226351.0,4.6608521938323975,-0.909996509552002,8.824094384908676,2020-03-03 20:00:26.351000-06:00,2020-03-03 20:00
1583287226401.0,4.644092082977295,-0.887441873550415,8.80949330329895,2020-03-03 20:00:26.401000-06:00,2020-03-03 20:00
1583287226451.0,4.617271661758423,-0.9029713869094849,8.812162637710571,2020-03-03 20:00:26.451000-06:00,2020-03-03 20:00
1583287226501.0,4.624470114707947,-0.8898024559020996,8.82215267419815,2020-03-03 20:00:26.501000-06:00,2020-03-03 20:00
1583287226551.0,4.63773900270462,-0.9139711856842041,8.820264518260956,2020-03-03 20:00:26.551000-06:00,2020-03-03 20:00
1583287226601.0,4.62482476234436,-0.8854589462280273,8.813595950603485,2020-03-03 20:00:26.601000-06:00,2020-03-03 20:00
1583287226651.0,4.627625823020935,-0.8961071968078613,8.825538992881775,2020-03-03 20:00:26.651000-06:00,2020-03-03 20:00
1583287226701.0,4.631808936595917,-0.8971150517463684,8.799065589904785,2020-03-03 20:00:26.701000-06:00,2020-03-03 20:00
1583287226751.0,4.653155207633972,-0.9101192951202393,8.819048404693604,2020-03-03 20:00:26.751000-06:00,2020-03-03 20:00
1583287226801.0,4.626484394073486,-0.9219781160354614,8.852559804916382,2020-03-03 20:00:26.801000-06:00,2020-03-03 20:00
1583287226851.0,4.623273700475693,-0.9177518486976624,8.800278663635254,2020-03-03 20:00:26.851000-06:00,2020-03-03 20:00
1583287226901.0,4.636182367801666,-0.8845558166503906,8.82345986366272,2020-03-03 20:00:26.901000-06:00,2020-03-03 20:00
1583287226951.0,4.651185154914856,-0.8582361936569214,8.83464976446703,2020-03-03 20:00:26.951000-06:00,2020-03-03 20:00
1583287227001.0,4.647702515125275,-0.9069433212280273,8.801326751708984,2020-03-03 20:00:27.001000-06:00,2020-03-03 20:00
1583287227051.0,4.640041768550873,-0.922372579574585,8.82320761680603,2020-03-03 20:00:27.051000-06:00,2020-03-03 20:00
1583287227101.0,4.648150384426117,-0.9614591598510742,8.781497478485107,2020-03-03 20:00:27.101000-06:00,2020-03-03 20:00
1583287227151.0,4.63246750831604,-0.9031577110290527,8.828754425048828,2020-03-03 20:00:27.151000-06:00,2020-03-03 20:00
1583287227201.0,4.6233117282390594,-0.9176650047302246,8.82623815536499,2020-03-03 20:00:27.201000-06:00,2020-03-03 20:00
1583287227251.0,4.617498338222504,-0.9563312530517578,8.810904860496521,2020-03-03 20:00:27.251000-06:00,2020-03-03 20:00
1583287227301.0,4.648418188095093,-0.9575778245925903,8.799080848693848,2020-03-03 20:00:27.301000-06:00,2020-03-03 20:00
1583287227351.0,4.657707351259887,-0.9556205,8.800708264112473,2020-03-03 20:00:27.351000-06:00,2020-03-03 20:00
1583287227401.0,4.643603682518005,-0.912926435470581,8.816914558410645,2020-03-03 20:00:27.401000-06:00,2020-03-03 20:00
1583287227451.0,4.657166838645935,-0.935401439666748,8.78596568107605,2020-03-03 20:00:27.451000-06:00,2020-03-03 20:00
1583287227501.0,4.651762545108795,-0.9387810826301575,8.821986198425293,2020-03-03 20:00:27.501000-06:00,2020-03-03 20:00
1583287227551.0,4.618337392807007,-0.9437910318374634,8.800559282302856,2020-03-03 20:00:27.551000-06:00,2020-03-03 20:00
1583287227601.0,4.648006200790405,-0.9869441986083984,8.791249234229326,2020-03-03 20:00:27.601000-06:00,2020-03-03 20:00
1583287227651.0,4.664528340101242,-0.9609107971191406,8.787616342306137,2020-03-03 20:00:27.651000-06:00,2020-03-03 20:00
1583287227701.0,4.67460560798645,-0.9115889072418213,8.804882884025574,2020-03-03 20:00:27.701000-06:00,2020-03-03 20:00
1583287227751.0,4.6469714641571045,-0.9265966415405273,8.779975891113281,2020-03-03 20:00:27.751000-06:00,2020-03-03 20:00
1583287227801.0,4.6289979219436646,-0.9824352264404297,8.796726107597351,2020-03-03 20:00:27.801000-06:00,2020-03-03 20:00
1583287227851.0,4.6513519287109375,-1.0141639709472656,8.790959239006042,2020-03-03 20:00:27.851000-06:00,2020-03-03 20:00
1583287227901.0,4.641933798789978,-0.9764976501464844,8.801938772201538,2020-03-03 20:00:27.901000-06:00,2020-03-03 20:00
1583287227951.0,4.634548246860504,-0.9291837215423584,8.815119862556458,2020-03-03 20:00:27.951000-06:00,2020-03-03 20:00
1583287228001.0,4.643759727478027,-0.9862217903137207,8.788089752197266,2020-03-03 20:00:28.001000-06:00,2020-03-03 20:00
1583287228051.0,4.653315305709839,-1.0105368196964264,8.802567720413208,2020-03-03 20:00:28.051000-06:00,2020-03-03 20:00
1583287228101.0,4.6327033042907715,-0.9887343645095825,8.793715357780457,2020-03-03 20:00:28.101000-06:00,2020-03-03 20:00
1583287228151.0,4.626227896194905,-0.9716060757637024,8.80317223072052,2020-03-03 20:00:28.151000-06:00,2020-03-03 20:00
1583287228201.0,4.619584500789642,-0.9880881309509277,8.814733624458313,2020-03-03 20:00:28.201000-06:00,2020-03-03 20:00
1583287228251.0,4.614941120147705,-0.9863746762275696,8.814116343855858,2020-03-03 20:00:28.251000-06:00,2020-03-03 20:00
1583287228301.0,4.627651214599609,-0.9928209781646729,8.80647724866867,2020-03-03 20:00:28.301000-06:00,2020-03-03 20:00
1583287228351.0,4.630776543170214,-0.9821844696998596,8.808450758457184,2020-03-03 20:00:28.351000-06:00,2020-03-03 20:00
1583287228401.0,4.620578765869141,-0.9883084893226624,8.816085010766983,2020-03-03 20:00:28.401000-06:00,2020-03-03 20:00
1583287228451.0,4.609886050224304,-0.9758924245834351,8.804916441440582,2020-03-03 20:00:28.451000-06:00,2020-03-03 20:00
1583287228501.0,4.606580324470997,-1.0135726928710938,8.805511713027954,2020-03-03 20:00:28.501000-06:00,2020-03-03 20:00
1583287228551.0,4.615236759185791,-1.007144570350647,8.79649531841278,2020-03-03 20:00:28.551000-06:00,2020-03-03 20:00
1583287228601.0,4.605595231056213,-0.9803485870361328,8.815353870391846,2020-03-03 20:00:28.601000-06:00,2020-03-03 20:00
1583287228651.0,4.612799942493439,-0.9665451049804688,8.82158923521638,2020-03-03 20:00:28.651000-06:00,2020-03-03 20:00
1583287228701.0,4.612405627965927,-0.990490198135376,8.815809279680252,2020-03-03 20:00:28.701000-06:00,2020-03-03 20:00
1583287228751.0,4.612494915723801,-1.0115714073181152,8.831581950187683,2020-03-03 20:00:28.751000-06:00,2020-03-03 20:00
1583287228801.0,4.597527503967285,-0.9965049028396606,8.805963039398193,2020-03-03 20:00:28.801000-06:00,2020-03-03 20:00
1583287228851.0,4.608401894569397,-0.9942196011543274,8.810226082801819,2020-03-03 20:00:28.851000-06:00,2020-03-03 20:00
1583287228901.0,4.583008766174316,-1.0041902661323547,8.834728360176086,2020-03-03 20:00:28.901000-06:00,2020-03-03 20:00
1583287228951.0,4.5694191455841064,-1.0383813381195068,8.859904050827026,2020-03-03 20:00:28.951000-06:00,2020-03-03 20:00
1583287229001.0,4.589229226112366,-1.0038807392120361,8.813523292541504,2020-03-03 20:00:29.001000-06:00,2020-03-03 20:00
1583287229051.0,4.592173561453819,-0.9908418506383896,8.832964658737183,2020-03-03 20:00:29.051000-06:00,2020-03-03 20:00
1583287229101.0,4.576561450958252,-1.0195138454437256,8.831365704536438,2020-03-03 20:00:29.101000-06:00,2020-03-03 20:00
1583287229151.0,4.567933619022369,-1.0429507493972778,8.819455742835999,2020-03-03 20:00:29.151000-06:00,2020-03-03 20:00
1583287229201.0,4.56960566341877,-1.0314321517944336,8.834144949913025,2020-03-03 20:00:29.201000-06:00,2020-03-03 20:00
1583287229251.0,4.580733001232147,-1.0027683973312378,8.820900917053223,2020-03-03 20:00:29.251000-06:00,2020-03-03 20:00
1583287229301.0,4.582555755972862,-1.0006918013095856,8.82474148273468,2020-03-03 20:00:29.301000-06:00,2020-03-03 20:00
1583287229351.0,4.555493354797363,-1.02141273021698,8.833148002624512,2020-03-03 20:00:29.351000-06:00,2020-03-03 20:00
1583287229401.0,4.57484769821167,-1.0225069224834442,8.82944169640541,2020-03-03 20:00:29.401000-06:00,2020-03-03 20:00
1583287229451.0,4.5848052352666855,-0.9983258247375488,8.814127087593079,2020-03-03 20:00:29.451000-06:00,2020-03-03 20:00
1583287229501.0,4.573443591594696,-0.9984340071678162,8.858405351638794,2020-03-03 20:00:29.501000-06:00,2020-03-03 20:00
1583287229551.0,4.556888580322266,-1.028923511505127,8.79255485534668,2020-03-03 20:00:29.551000-06:00,2020-03-03 20:00
1583287229601.0,4.573567628860474,-1.0247056484222412,8.82404613494873,2020-03-03 20:00:29.601000-06:00,2020-03-03 20:00
1583287229651.0,4.574722468852997,-1.009692132472992,8.842913061380386,2020-03-03 20:00:29.651000-06:00,2020-03-03 20:00
1583287229701.0,4.563299655914307,-1.0149183869361877,8.822561740875244,2020-03-03 20:00:29.701000-06:00,2020-03-03 20:00
1583287229751.0,4.574967980384827,-0.9982597827911377,8.81524557620287,2020-03-03 20:00:29.751000-06:00,2020-03-03 20:00
1583287229801.0,4.570860505104065,-0.9806841015815735,8.837892413139343,2020-03-03 20:00:29.801000-06:00,2020-03-03 20:00
1583287229851.0,4.550154328346252,-0.9945470094680786,8.826853632926941,2020-03-03 20:00:29.851000-06:00,2020-03-03 20:00
1583287229901.0,4.577913522720337,-1.0434763431549072,8.829302251338959,2020-03-03 20:00:29.901000-06:00,2020-03-03 20:00
1583287229951.0,4.592493176460266,-1.0147819519042969,8.829639941453934,2020-03-03 20:00:29.951000-06:00,2020-03-03 20:00
1583287230001.0,4.579165101051331,-0.9979391694068909,8.834537863731384,2020-03-03 20:00:30.001000-06:00,2020-03-03 20:00
1583287230051.0,4.568697541952133,-0.997991718351841,8.821408033370972,2020-03-03 20:00:30.051000-06:00,2020-03-03 20:00
1583287230101.0,4.561067461967468,-1.0319373607635498,8.835477709770203,2020-03-03 20:00:30.101000-06:00,2020-03-03 20:00
1583287230151.0,4.565003156661987,-1.0400224179029465,8.83684578537941,2020-03-03 20:00:30.151000-06:00,2020-03-03 20:00
1583287230201.0,4.566886656917632,-1.0245226621627808,8.828988552093506,2020-03-03 20:00:30.201000-06:00,2020-03-03 20:00
1583287230251.0,4.55990195274353,-1.0015195608139038,8.83364075422287,2020-03-03 20:00:30.251000-06:00,2020-03-03 20:00
1583287230301.0,4.5718653202056885,-1.022132158279419,8.838973462581635,2020-03-03 20:00:30.301000-06:00,2020-03-03 20:00
1583287230351.0,4.570943474769592,-1.030310527421534,8.828492045402527,2020-03-03 20:00:30.351000-06:00,2020-03-03 20:00
1583287230401.0,4.564563900232315,-1.0411131978034973,8.836465001106262,2020-03-03 20:00:30.401000-06:00,2020-03-03 20:00
1583287230451.0,4.5411518812179565,-1.0356336832046509,8.828015327453613,2020-03-03 20:00:30.451000-06:00,2020-03-03 20:00
1583287230501.0,4.561502456665039,-1.0557655096054077,8.815148532390594,2020-03-03 20:00:30.501000-06:00,2020-03-03 20:00
1583287230551.0,4.566127598285675,-1.0505602955818176,8.83901834487915,2020-03-03 20:00:30.551000-06:00,2020-03-03 20:00
1583287230601.0,4.560074299573898,-1.024046778678894,8.832386374473572,2020-03-03 20:00:30.601000-06:00,2020-03-03 20:00
1583287230651.0,4.5688636302948,-1.033487319946289,8.802465081214905,2020-03-03 20:00:30.651000-06:00,2020-03-03 20:00
1583287230701.0,4.573157645761967,-1.0639981031417847,8.846875667572021,2020-03-03 20:00:30.701000-06:00,2020-03-03 20:00
1583287230751.0,4.5426344871521,-1.0424258708953857,8.850261569023132,2020-03-03 20:00:30.751000-06:00,2020-03-03 20:00
1583287230801.0,4.566248178482056,-1.044685423374176,8.818794250488281,2020-03-03 20:00:30.801000-06:00,2020-03-03 20:00
1583287230851.0,4.569083571434021,-1.0646305084228516,8.82412326335907,2020-03-03 20:00:30.851000-06:00,2020-03-03 20:00
1583287230901.0,4.569681152701378,-1.1107335090637207,8.812754154205322,2020-03-03 20:00:30.901000-06:00,2020-03-03 20:00
1583287230951.0,4.5630983710289,-1.0619115829467773,8.835468053817749,2020-03-03 20:00:30.951000-06:00,2020-03-03 20:00
1583287231001.0,4.614571571350098,-0.982914924621582,8.848471283912659,2020-03-03 20:00:31.001000-06:00,2020-03-03 20:00
1583287231051.0,4.75559139251709,-0.6722202301025391,8.924361228942871,2020-03-03 20:00:31.051000-06:00,2020-03-03 20:00
1583287231101.0,5.056386947631836,0.415496826171875,9.370445251464844,2020-03-03 20:00:31.101000-06:00,2020-03-03 20:00
1583287231151.0,6.2931976318359375,3.0900726318359375,10.246330261230469,2020-03-03 20:00:31.151000-06:00,2020-03-03 20:00
1583287231201.0,7.119892120361328,4.276832580566406,9.680538177490234,2020-03-03 20:00:31.201000-06:00,2020-03-03 20:00
1583287231251.0,5.4689483642578125,1.7588958740234375,7.6285247802734375,2020-03-03 20:00:31.251000-06:00,2020-03-03 20:00
1583287231301.0,5.305660247802734,3.08001708984375,6.379386901855469,2020-03-03 20:00:31.301000-06:00,2020-03-03 20:00
1583287231351.0,10.09539794921875,1.5059661865234375,6.349266052246094,2020-03-03 20:00:31.351000-06:00,2020-03-03 20:00
1583287231401.0,15.87884521484375,-1.596588134765625,5.999671936035156,2020-03-03 20:00:31.401000-06:00,2020-03-03 20:00
1583287231451.0,20.39215087890625,-3.7419662475585938,5.3335723876953125,2020-03-03 20:00:31.451000-06:00,2020-03-03 20:00
1583287231501.0,21.63900375366211,-6.9974517822265625,4.838224411010742,2020-03-03 20:00:31.501000-06:00,2020-03-03 20:00
1583287231551.0,19.848907470703125,-12.554656982421875,2.4329986572265625,2020-03-03 20:00:31.551000-06:00,2020-03-03 20:00
1583287231601.0,15.285186767578125,-16.239593505859375,0.898162841796875,2020-03-03 20:00:31.601000-06:00,2020-03-03 20:00
1583287231651.0,10.53955078125,-18.215621948242188,-1.5438079833984375,2020-03-03 20:00:31.651000-06:00,2020-03-03 20:00
1583287231701.0,7.4690093994140625,-17.70965576171875,-4.3814239501953125,2020-03-03 20:00:31.701000-06:00,2020-03-03 20:00
1583287231751.0,6.7836527824401855,-14.528457641601562,-5.280803680419922,2020-03-03 20:00:31.751000-06:00,2020-03-03 20:00
1583287231801.0,9.353286743164062,-8.854278564453125,-4.7213897705078125,2020-03-03 20:00:31.801000-06:00,2020-03-03 20:00
1583287231851.0,9.554512023925781,-1.29632568359375,-4.012168884277344,2020-03-03 20:00:31.851000-06:00,2020-03-03 20:00
1583287231901.0,5.206451416015625,5.59002685546875,-3.5710716247558594,2020-03-03 20:00:31.901000-06:00,2020-03-03 20:00
1583287231951.0,3.784036636352539,8.362968444824219,0.132720947265625,2020-03-03 20:00:31.951000-06:00,2020-03-03 20:00
1583287232001.0,5.2888946533203125,8.327924728393555,2.8052749633789062,2020-03-03 20:00:32.001000-06:00,2020-03-03 20:00
1583287232051.0,8.306396484375,5.9806976318359375,5.2815093994140625,2020-03-03 20:00:32.051000-06:00,2020-03-03 20:00
1583287232101.0,12.634979248046875,3.9384078979492188,9.105560302734375,2020-03-03 20:00:32.101000-06:00,2020-03-03 20:00
1583287232151.0,18.27996826171875,0.9468994140625,13.039749145507812,2020-03-03 20:00:32.151000-06:00,2020-03-03 20:00
1583287232201.0,23.219818115234375,-4.404541015625,16.114181518554688,2020-03-03 20:00:32.201000-06:00,2020-03-03 20:00
1583287232251.0,26.085159301757812,-10.72412109375,16.060035705566406,2020-03-03 20:00:32.251000-06:00,2020-03-03 20:00
1583287232301.0,25.586639404296875,-16.129180908203125,12.07537841796875,2020-03-03 20:00:32.301000-06:00,2020-03-03 20:00
1583287232351.0,22.560134887695312,-18.7501220703125,7.05743408203125,2020-03-03 20:00:32.351000-06:00,2020-03-03 20:00
1583287232401.0,18.687759399414062,-19.00966453552246,2.26544189453125,2020-03-03 20:00:32.401000-06:00,2020-03-03 20:00
1583287232451.0,14.616500854492188,-18.147022247314453,-1.55889892578125,2020-03-03 20:00:32.451000-06:00,2020-03-03 20:00
1583287232501.0,11.718185424804688,-15.672637939453125,-4.6278228759765625,2020-03-03 20:00:32.501000-06:00,2020-03-03 20:00
1583287232551.0,10.94448471069336,-11.655059814453125,-6.0216064453125,2020-03-03 20:00:32.551000-06:00,2020-03-03 20:00
1583287232601.0,11.841621398925781,-7.23907470703125,-5.640773773193359,2020-03-03 20:00:32.601000-06:00,2020-03-03 20:00
1583287232651.0,11.966154098510742,-2.14794921875,-4.3282623291015625,2020-03-03 20:00:32.651000-06:00,2020-03-03 20:00
1583287232701.0,8.159576416015625,2.1593475341796875,-3.2549972534179688,2020-03-03 20:00:32.701000-06:00,2020-03-03 20:00
1583287232751.0,6.249355316162109,4.727081298828125,-0.806488037109375,2020-03-03 20:00:32.751000-06:00,2020-03-03 20:00
1583287232801.0,5.473766326904297,6.6383056640625,2.2198333740234375,2020-03-03 20:00:32.801000-06:00,2020-03-03 20:00
1583287232851.0,5.885242462158203,6.368633270263672,4.815216064453125,2020-03-03 20:00:32.851000-06:00,2020-03-03 20:00
1583287232901.0,8.2567138671875,4.954902648925781,8.067581176757812,2020-03-03 20:00:32.901000-06:00,2020-03-03 20:00
1583287232951.0,11.8385009765625,3.8995361328125,12.837738037109375,2020-03-03 20:00:32.951000-06:00,2020-03-03 20:00
1583287233001.0,16.505859375,1.3242645263671875,15.241401672363281,2020-03-03 20:00:33.001000-06:00,2020-03-03 20:00
1583287233051.0,21.2886962890625,-2.610595703125,15.08084487915039,2020-03-03 20:00:33.051000-06:00,2020-03-03 20:00
1583287233101.0,25.74871826171875,-5.9569244384765625,12.3638916015625,2020-03-03 20:00:33.101000-06:00,2020-03-03 20:00
1583287233151.0,26.40264129638672,-11.093017578125,9.221786499023438,2020-03-03 20:00:33.151000-06:00,2020-03-03 20:00
1583287233201.0,22.844818115234375,-16.62530517578125,6.530029296875,2020-03-03 20:00:33.201000-06:00,2020-03-03 20:00
1583287233251.0,18.848587036132812,-18.589256286621094,4.1061248779296875,2020-03-03 20:00:33.251000-06:00,2020-03-03 20:00
1583287233301.0,14.342620849609375,-18.747727394104004,0.5958099365234375,2020-03-03 20:00:33.301000-06:00,2020-03-03 20:00
1583287233351.0,12.3927001953125,-15.059295654296875,-1.8373947143554688,2020-03-03 20:00:33.351000-06:00,2020-03-03 20:00
1583287233401.0,12.39715576171875,-9.635284423828125,-4.0574798583984375,2020-03-03 20:00:33.401000-06:00,2020-03-03 20:00
1583287233451.0,14.03558349609375,-4.920257568359375,-4.0225372314453125,2020-03-03 20:00:33.451000-06:00,2020-03-03 20:00
1583287233501.0,15.554206848144531,-1.407867431640625,-2.8517379760742188,2020-03-03 20:00:33.501000-06:00,2020-03-03 20:00
1583287233551.0,14.467277526855469,0.653411865234375,-1.5356216430664062,2020-03-03 20:00:33.551000-06:00,2020-03-03 20:00
1583287233601.0,10.530303955078125,2.06793212890625,0.2544403076171875,2020-03-03 20:00:33.601000-06:00,2020-03-03 20:00
1583287233651.0,6.222747802734375,2.808574676513672,2.3632049560546875,2020-03-03 20:00:33.651000-06:00,2020-03-03 20:00
1583287233701.0,2.054168701171875,2.155261993408203,4.7595977783203125,2020-03-03 20:00:33.701000-06:00,2020-03-03 20:00
1583287233751.0,0.32746124267578125,-0.0249176025390625,7.604156494140625,2020-03-03 20:00:33.751000-06:00,2020-03-03 20:00
1583287233801.0,1.718017578125,-5.29718017578125,9.380630493164062,2020-03-03 20:00:33.801000-06:00,2020-03-03 20:00
1583287233851.0,3.908294677734375,-10.1568603515625,9.614980697631836,2020-03-03 20:00:33.851000-06:00,2020-03-03 20:00
1583287233901.0,4.221560478210449,-12.186927795410156,6.84112548828125,2020-03-03 20:00:33.901000-06:00,2020-03-03 20:00
1583287233951.0,5.849761962890625,-11.073089599609375,3.8170166015625,2020-03-03 20:00:33.951000-06:00,2020-03-03 20:00
1583287234001.0,11.467254638671875,-17.42626953125,3.3511962890625,2020-03-03 20:00:34.001000-06:00,2020-03-03 20:00
1583287234051.0,11.900810241699219,-12.663299560546875,11.9122314453125,2020-03-03 20:00:34.051000-06:00,2020-03-03 20:00
1583287234101.0,7.88934326171875,0.791748046875,11.4510498046875,2020-03-03 20:00:34.101000-06:00,2020-03-03 20:00
1583287234151.0,5.328155517578125,0.465362548828125,5.844696044921875,2020-03-03 20:00:34.151000-06:00,2020-03-03 20:00
1583287234201.0,5.12312126159668,-8.0333251953125,4.897483825683594,2020-03-03 20:00:34.201000-06:00,2020-03-03 20:00
1583287234251.0,4.056953430175781,-9.791080474853516,3.3497772216796875,2020-03-03 20:00:34.251000-06:00,2020-03-03 20:00
1583287234301.0,2.958538055419922,-7.878936767578125,3.744384765625,2020-03-03 20:00:34.301000-06:00,2020-03-03 20:00
1583287234351.0,3.3949623107910156,-6.637290954589844,5.8379974365234375,2020-03-03 20:00:34.351000-06:00,2020-03-03 20:00
1583287234401.0,3.9455528259277344,-5.558189392089844,6.888576507568359,2020-03-03 20:00:34.401000-06:00,2020-03-03 20:00
1583287234451.0,4.378044128417969,-5.856975555419922,6.365337371826172,2020-03-03 20:00:34.451000-06:00,2020-03-03 20:00
1583287234501.0,4.341822624206543,-7.1970367431640625,5.291969299316406,2020-03-03 20:00:34.501000-06:00,2020-03-03 20:00
1583287234551.0,4.176004409790039,-7.268003463745117,5.097373008728027,2020-03-03 20:00:34.551000-06:00,2020-03-03 20:00
1583287234601.0,4.217294216156006,-6.6992034912109375,5.739810943603516,2020-03-03 20:00:34.601000-06:00,2020-03-03 20:00
1583287234651.0,4.2933349609375,-6.371565818786621,6.102282524108887,2020-03-03 20:00:34.651000-06:00,2020-03-03 20:00
1583287234701.0,4.321024715900421,-6.450592994689941,6.008058547973633,2020-03-03 20:00:34.701000-06:00,2020-03-03 20:00
1583287234751.0,4.298079609870911,-6.683809280395508,5.788094520568848,2020-03-03 20:00:34.751000-06:00,2020-03-03 20:00
1583287234801.0,4.189201354980469,-6.799086570739746,5.658092975616455,2020-03-03 20:00:34.801000-06:00,2020-03-03 20:00
1583287234851.0,4.114161491394043,-6.810022801160812,5.622526407241821,2020-03-03 20:00:34.851000-06:00,2020-03-03 20:00
1583287234901.0,4.13971209526062,-6.802764445543289,5.675704002380371,2020-03-03 20:00:34.901000-06:00,2020-03-03 20:00
1583287234951.0,4.104167938232422,-6.807179182767868,5.704007565975189,2020-03-03 20:00:34.951000-06:00,2020-03-03 20:00
1583287235001.0,4.070611596107483,-6.783716082572937,5.730173230171204,2020-03-03 20:00:35.001000-06:00,2020-03-03 20:00
1583287235051.0,4.141225337982178,-6.711815357208252,5.714073419570923,2020-03-03 20:00:35.051000-06:00,2020-03-03 20:00
1583287235101.0,4.184454321861267,-6.71346127986908,5.730874538421631,2020-03-03 20:00:35.101000-06:00,2020-03-03 20:00
1583287235151.0,4.189542837440968,-6.735661149024963,5.754541397094727,2020-03-03 20:00:35.151000-06:00,2020-03-03 20:00
1583287235201.0,4.120517730712891,-6.755486249923706,5.737995982170105,2020-03-03 20:00:35.201000-06:00,2020-03-03 20:00
1583287235251.0,4.077309012413025,-6.814538955688477,5.732132717967033,2020-03-03 20:00:35.251000-06:00,2020-03-03 20:00
1583287235301.0,4.105062007904053,-6.905398368835449,5.649496078491211,2020-03-03 20:00:35.301000-06:00,2020-03-03 20:00
1583287235351.0,4.067998886108398,-6.906627893447876,5.684385776519775,2020-03-03 20:00:35.351000-06:00,2020-03-03 20:00
1583287235401.0,4.037792086601257,-6.828765869140625,5.721514940261841,2020-03-03 20:00:35.401000-06:00,2020-03-03 20:00
1583287235451.0,4.023495018482208,-6.916709899902344,5.7218398451805115,2020-03-03 20:00:35.451000-06:00,2020-03-03 20:00
1583287235501.0,3.899028778076172,-6.979039192199707,5.787144660949707,2020-03-03 20:00:35.501000-06:00,2020-03-03 20:00
1583287235551.0,3.5826244354248047,-7.052570343017578,5.879333972930908,2020-03-03 20:00:35.551000-06:00,2020-03-03 20:00
1583287235601.0,3.302058219909668,-7.508277893066406,5.797725677490234,2020-03-03 20:00:35.601000-06:00,2020-03-03 20:00
1583287235651.0,3.319868564605713,-7.153923034667969,5.505878448486328,2020-03-03 20:00:35.651000-06:00,2020-03-03 20:00
1583287235701.0,3.6950435638427734,-6.888260841369629,5.2606658935546875,2020-03-03 20:00:35.701000-06:00,2020-03-03 20:00
1583287235751.0,4.041416168212891,-7.240322113037109,5.457452774047852,2020-03-03 20:00:35.751000-06:00,2020-03-03 20:00
1583287235801.0,4.085733890533447,-6.93016242980957,5.850566864013672,2020-03-03 20:00:35.801000-06:00,2020-03-03 20:00
1583287235851.0,3.6773109436035156,-6.822882056236267,6.113509178161621,2020-03-03 20:00:35.851000-06:00,2020-03-03 20:00
1583287235901.0,3.6024913787841797,-6.630995750427246,6.233368396759033,2020-03-03 20:00:35.901000-06:00,2020-03-03 20:00
1583287235951.0,3.57763409614563,-6.426882743835449,6.0898847579956055,2020-03-03 20:00:35.951000-06:00,2020-03-03 20:00
1583287236001.0,3.632390022277832,-6.74968147277832,5.7385101318359375,2020-03-03 20:00:36.001000-06:00,2020-03-03 20:00
1583287236051.0,3.3331127166748047,-7.413158416748047,5.122333526611328,2020-03-03 20:00:36.051000-06:00,2020-03-03 20:00
1583287236101.0,3.1086034774780273,-7.690582275390625,5.099587440490723,2020-03-03 20:00:36.101000-06:00,2020-03-03 20:00
1583287236151.0,3.453847885131836,-6.936607360839844,5.572967529296875,2020-03-03 20:00:36.151000-06:00,2020-03-03 20:00
1583287236201.0,3.84954833984375,-6.866945266723633,5.788651466369629,2020-03-03 20:00:36.201000-06:00,2020-03-03 20:00
1583287236251.0,4.127627372741699,-6.811464309692383,5.838828921318054,2020-03-03 20:00:36.251000-06:00,2020-03-03 20:00
1583287236301.0,4.5954742431640625,-6.331333160400391,6.098154067993164,2020-03-03 20:00:36.301000-06:00,2020-03-03 20:00
1583287236351.0,5.137493133544922,-6.109155654907227,5.885068893432617,2020-03-03 20:00:36.351000-06:00,2020-03-03 20:00
1583287236401.0,5.493337631225586,-5.485507965087891,5.735060214996338,2020-03-03 20:00:36.401000-06:00,2020-03-03 20:00
1583287236451.0,5.673460960388184,-5.6930999755859375,5.7666847705841064,2020-03-03 20:00:36.451000-06:00,2020-03-03 20:00
1583287236501.0,5.823249816894531,-5.661294937133789,5.812910556793213,2020-03-03 20:00:36.501000-06:00,2020-03-03 20:00
1583287236551.0,6.119062423706055,-5.663152456283569,5.6621294021606445,2020-03-03 20:00:36.551000-06:00,2020-03-03 20:00
1583287236601.0,6.175307512283325,-5.457328796386719,5.468487739562988,2020-03-03 20:00:36.601000-06:00,2020-03-03 20:00
1583287236651.0,5.944364547729492,-6.090904235839844,5.248818397521973,2020-03-03 20:00:36.651000-06:00,2020-03-03 20:00
1583287236701.0,5.516227722167969,-6.605550765991211,5.011873245239258,2020-03-03 20:00:36.701000-06:00,2020-03-03 20:00
1583287236751.0,5.265179634094238,-7.054349899291992,4.742551803588867,2020-03-03 20:00:36.751000-06:00,2020-03-03 20:00
1583287236801.0,5.033491134643555,-7.312806129455566,4.66387403011322,2020-03-03 20:00:36.801000-06:00,2020-03-03 20:00
1583287236851.0,4.710744857788086,-6.5454254150390625,5.287166595458984,2020-03-03 20:00:36.851000-06:00,2020-03-03 20:00
1583287236901.0,4.676679849624634,-5.179542541503906,6.148826599121094,2020-03-03 20:00:36.901000-06:00,2020-03-03 20:00
1583287236951.0,5.026435852050781,-3.994110107421875,6.807830810546875,2020-03-03 20:00:36.951000-06:00,2020-03-03 20:00
1583287237001.0,5.428850173950195,-2.5502548217773438,7.565998077392578,2020-03-03 20:00:37.001000-06:00,2020-03-03 20:00
1583287237051.0,6.013069152832031,-2.0176944732666016,8.14581298828125,2020-03-03 20:00:37.051000-06:00,2020-03-03 20:00
1583287237101.0,6.233527183532715,-2.2895259857177734,7.980772018432617,2020-03-03 20:00:37.101000-06:00,2020-03-03 20:00
1583287237151.0,6.228295564651489,-2.4616880416870117,7.9030188247561455,2020-03-03 20:00:37.151000-06:00,2020-03-03 20:00
1583287237201.0,5.988435745239258,-2.376659393310547,8.034510612487793,2020-03-03 20:00:37.201000-06:00,2020-03-03 20:00
1583287237251.0,5.686225891113281,-2.3471744656562805,7.9863481521606445,2020-03-03 20:00:37.251000-06:00,2020-03-03 20:00
1583287237301.0,5.600673675537109,-2.2058839797973633,8.032931327819824,2020-03-03 20:00:37.301000-06:00,2020-03-03 20:00
1583287237351.0,5.458670616149902,-2.295866012573242,8.245440483093262,2020-03-03 20:00:37.351000-06:00,2020-03-03 20:00
1583287237401.0,5.086816787719727,-2.94427490234375,8.107831001281738,2020-03-03 20:00:37.401000-06:00,2020-03-03 20:00
1583287237451.0,4.7482757568359375,-3.5488204956054688,7.675745010375977,2020-03-03 20:00:37.451000-06:00,2020-03-03 20:00
1583287237501.0,4.993886947631836,-4.1486663818359375,7.503990173339844,2020-03-03 20:00:37.501000-06:00,2020-03-03 20:00
1583287237551.0,5.394657135009766,-4.432003974914551,7.452638387680054,2020-03-03 20:00:37.551000-06:00,2020-03-03 20:00
1583287237601.0,5.409887313842773,-4.695774078369141,7.3103132247924805,2020-03-03 20:00:37.601000-06:00,2020-03-03 20:00
1583287237651.0,4.6139678955078125,-4.421634674072266,7.114239692687988,2020-03-03 20:00:37.651000-06:00,2020-03-03 20:00
1583287237701.0,3.6960067749023438,-3.998964309692383,7.2680206298828125,2020-03-03 20:00:37.701000-06:00,2020-03-03 20:00
1583287237751.0,3.6041836738586426,-4.76336669921875,7.909141540527344,2020-03-03 20:00:37.751000-06:00,2020-03-03 20:00
1583287237801.0,4.552276611328125,-6.251945495605469,7.893410682678223,2020-03-03 20:00:37.801000-06:00,2020-03-03 20:00
1583287237851.0,4.522495269775391,-5.5151519775390625,6.997344970703125,2020-03-03 20:00:37.851000-06:00,2020-03-03 20:00
1583287237901.0,4.349436283111572,-4.380870819091797,7.15032958984375,2020-03-03 20:00:37.901000-06:00,2020-03-03 20:00
1583287237951.0,4.459654808044434,-4.7615509033203125,7.633304595947266,2020-03-03 20:00:37.951000-06:00,2020-03-03 20:00
1583287238001.0,4.308248519897461,-5.2270050048828125,7.381818771362305,2020-03-03 20:00:38.001000-06:00,2020-03-03 20:00
1583287238051.0,4.080714225769043,-5.349174737930298,7.164353370666504,2020-03-03 20:00:38.051000-06:00,2020-03-03 20:00
1583287238101.0,3.905972480773926,-5.230245590209961,7.272706985473633,2020-03-03 20:00:38.101000-06:00,2020-03-03 20:00
1583287238151.0,3.643932342529297,-5.223316669464111,7.326684594154358,2020-03-03 20:00:38.151000-06:00,2020-03-03 20:00
1583287238201.0,3.4655017852783203,-5.46452522277832,7.323873996734619,2020-03-03 20:00:38.201000-06:00,2020-03-03 20:00
1583287238251.0,3.438072681427002,-5.514496684074402,7.348211407661438,2020-03-03 20:00:38.251000-06:00,2020-03-03 20:00
1583287238301.0,3.5187296867370605,-5.412163257598877,7.432672023773193,2020-03-03 20:00:38.301000-06:00,2020-03-03 20:00
1583287238351.0,3.625701427459717,-5.315479755401611,7.440327405929565,2020-03-03 20:00:38.351000-06:00,2020-03-03 20:00
1583287238401.0,3.675282835960388,-5.30255788564682,7.389302968978882,2020-03-03 20:00:38.401000-06:00,2020-03-03 20:00
1583287238451.0,3.648495674133301,-5.33347749710083,7.385837137699127,2020-03-03 20:00:38.451000-06:00,2020-03-03 20:00
1583287238501.0,3.5646438598632812,-5.3507161140441895,7.435038089752197,2020-03-03 20:00:38.501000-06:00,2020-03-03 20:00
1583287238551.0,3.515160083770752,-5.349277526140213,7.411856412887573,2020-03-03 20:00:38.551000-06:00,2020-03-03 20:00
1583287238601.0,3.568946361541748,-5.393781423568726,7.3718132972717285,2020-03-03 20:00:38.601000-06:00,2020-03-03 20:00
1583287238651.0,3.577578842639923,-5.464539527893066,7.35915020108223,2020-03-03 20:00:38.651000-06:00,2020-03-03 20:00
1583287238701.0,3.5448834896087646,-5.515560626983643,7.334388852119446,2020-03-03 20:00:38.701000-06:00,2020-03-03 20:00
1583287238751.0,3.5530914068222046,-5.505514979362488,7.3309341967105865,2020-03-03 20:00:38.751000-06:00,2020-03-03 20:00
1583287238801.0,3.5377883911132812,-5.521847248077393,7.3131184577941895,2020-03-03 20:00:38.801000-06:00,2020-03-03 20:00
1583287238851.0,3.4910945892333984,-5.560438632965088,7.318356871604919,2020-03-03 20:00:38.851000-06:00,2020-03-03 20:00
1583287238901.0,3.4935202598571777,-5.545822978019714,7.343439102172852,2020-03-03 20:00:38.901000-06:00,2020-03-03 20:00
1583287238951.0,3.556380271911621,-5.520266532897949,7.322727918624878,2020-03-03 20:00:38.951000-06:00,2020-03-03 20:00
1583287239001.0,3.572289153933525,-5.502898156642914,7.323176443576813,2020-03-03 20:00:39.001000-06:00,2020-03-03 20:00
1583287239051.0,3.540804624557495,-5.552640438079834,7.3037906885147095,2020-03-03 20:00:39.051000-06:00,2020-03-03 20:00
1583287239101.0,3.5272991955280304,-5.5275304317474365,7.277585744857788,2020-03-03 20:00:39.101000-06:00,2020-03-03 20:00
1583287239151.0,3.5534744262695312,-5.497957468032837,7.306024551391602,2020-03-03 20:00:39.151000-06:00,2020-03-03 20:00
1583287239201.0,3.5410828590393066,-5.4862366914749146,7.343423128128052,2020-03-03 20:00:39.201000-06:00,2020-03-03 20:00
1583287239251.0,3.5078115463256836,-5.510641574859619,7.3147289752960205,2020-03-03 20:00:39.251000-06:00,2020-03-03 20:00
1583287239301.0,3.5287485122680664,-5.513709127902985,7.280175566673279,2020-03-03 20:00:39.301000-06:00,2020-03-03 20:00
1583287239351.0,3.6245694160461426,-5.500046789646149,7.197240829467773,2020-03-03 20:00:39.351000-06:00,2020-03-03 20:00
1583287239401.0,3.7718143463134766,-5.466704368591309,7.221734285354614,2020-03-03 20:00:39.401000-06:00,2020-03-03 20:00
1583287239451.0,3.8845725059509277,-5.494708299636841,7.3319878578186035,2020-03-03 20:00:39.451000-06:00,2020-03-03 20:00
1583287239501.0,3.846846580505371,-5.451148509979248,7.37846052646637,2020-03-03 20:00:39.501000-06:00,2020-03-03 20:00
1583287239551.0,3.6247987747192383,-5.406294584274292,7.326605319976807,2020-03-03 20:00:39.551000-06:00,2020-03-03 20:00
1583287239601.0,3.57923024892807,-5.531009674072266,7.358560800552368,2020-03-03 20:00:39.601000-06:00,2020-03-03 20:00
1583287239651.0,3.663736343383789,-5.544156193733215,7.322015047073364,2020-03-03 20:00:39.651000-06:00,2020-03-03 20:00
1583287239701.0,3.783400535583496,-5.469150543212891,7.21242618560791,2020-03-03 20:00:39.701000-06:00,2020-03-03 20:00
1583287239751.0,3.7753689289093018,-5.366206169128418,7.198472499847412,2020-03-03 20:00:39.751000-06:00,2020-03-03 20:00
1583287239801.0,3.838183879852295,-5.272899627685547,7.336294174194336,2020-03-03 20:00:39.801000-06:00,2020-03-03 20:00
1583287239851.0,3.7938003540039062,-5.181336879730225,7.367713093757629,2020-03-03 20:00:39.851000-06:00,2020-03-03 20:00
1583287239901.0,3.5382156372070312,-5.612720489501953,7.255364418029785,2020-03-03 20:00:39.901000-06:00,2020-03-03 20:00
1583287239951.0,3.635403633117676,-5.473695755004883,7.494939804077148,2020-03-03 20:00:39.951000-06:00,2020-03-03 20:00
1583287240001.0,3.8403873443603516,-5.078763961791992,7.4960174560546875,2020-03-03 20:00:40.001000-06:00,2020-03-03 20:00
1583287240051.0,3.921427011489868,-5.446521759033203,7.153053283691406,2020-03-03 20:00:40.051000-06:00,2020-03-03 20:00
1583287240101.0,3.8666539192199707,-5.42319393157959,7.247910499572754,2020-03-03 20:00:40.101000-06:00,2020-03-03 20:00
1583287240151.0,3.732893943786621,-5.288516998291016,7.4445953369140625,2020-03-03 20:00:40.151000-06:00,2020-03-03 20:00
1583287240201.0,3.7012531980872154,-5.293034791946411,7.393070697784424,2020-03-03 20:00:40.201000-06:00,2020-03-03 20:00
1583287240251.0,3.762795925140381,-5.405733108520508,7.27749490737915,2020-03-03 20:00:40.251000-06:00,2020-03-03 20:00
1583287240301.0,3.7760568857192993,-5.44349080324173,7.283818244934082,2020-03-03 20:00:40.301000-06:00,2020-03-03 20:00
1583287240351.0,3.7383201122283936,-5.356372833251953,7.345484256744385,2020-03-03 20:00:40.351000-06:00,2020-03-03 20:00
1583287240401.0,3.687962293624878,-5.406754493713379,7.340540289878845,2020-03-03 20:00:40.401000-06:00,2020-03-03 20:00
1583287240451.0,3.689748704433441,-5.336278438568115,7.430966377258301,2020-03-03 20:00:40.451000-06:00,2020-03-03 20:00
1583287240501.0,3.7871928215026855,-5.237137317657471,7.40662145614624,2020-03-03 20:00:40.501000-06:00,2020-03-03 20:00
1583287240551.0,3.8830628395080566,-5.200148105621338,7.355081558227539,2020-03-03 20:00:40.551000-06:00,2020-03-03 20:00
1583287240601.0,3.831688404083252,-5.39394474029541,7.330378770828247,2020-03-03 20:00:40.601000-06:00,2020-03-03 20:00
1583287240651.0,3.6864185333251953,-5.511378765106201,7.280531883239746,2020-03-03 20:00:40.651000-06:00,2020-03-03 20:00
1583287240701.0,3.6095759868621826,-5.5661516189575195,7.229145050048828,2020-03-03 20:00:40.701000-06:00,2020-03-03 20:00
1583287240751.0,3.5819298028945923,-5.638949394226074,7.233070135116577,2020-03-03 20:00:40.751000-06:00,2020-03-03 20:00
1583287240801.0,3.50419282913208,-5.756453990936279,7.2131640911102295,2020-03-03 20:00:40.801000-06:00,2020-03-03 20:00
1583287240851.0,3.3116769790649414,-5.8365983963012695,7.115411758422852,2020-03-03 20:00:40.851000-06:00,2020-03-03 20:00
1583287240901.0,3.23555064201355,-5.898913145065308,7.127104043960571,2020-03-03 20:00:40.901000-06:00,2020-03-03 20:00
1583287240951.0,3.308180809020996,-5.834494590759277,7.194424629211426,2020-03-03 20:00:40.951000-06:00,2020-03-03 20:00
1583287241001.0,3.337252229452133,-5.7670276165008545,7.156466960906982,2020-03-03 20:00:41.001000-06:00,2020-03-03 20:00
1583287241051.0,3.3625712394714355,-5.7795186042785645,7.188688039779663,2020-03-03 20:00:41.051000-06:00,2020-03-03 20:00
1583287241101.0,3.4003825187683105,-5.775553345680237,7.228060841560364,2020-03-03 20:00:41.101000-06:00,2020-03-03 20:00
1583287241151.0,3.3861794471740723,-5.705896377563477,7.202685356140137,2020-03-03 20:00:41.151000-06:00,2020-03-03 20:00
1583287241201.0,3.359873652458191,-5.666691184043884,7.209960103034973,2020-03-03 20:00:41.201000-06:00,2020-03-03 20:00
1583287241251.0,3.344228684902191,-5.692177057266235,7.272709369659424,2020-03-03 20:00:41.251000-06:00,2020-03-03 20:00
1583287241301.0,3.339716926217079,-5.726629853248596,7.262646913528442,2020-03-03 20:00:41.301000-06:00,2020-03-03 20:00
1583287241351.0,3.281365394592285,-5.835604190826416,7.136593818664551,2020-03-03 20:00:41.351000-06:00,2020-03-03 20:00
1583287241401.0,3.1287498474121094,-5.962896823883057,7.082145690917969,2020-03-03 20:00:41.401000-06:00,2020-03-03 20:00
1583287241451.0,3.039764881134033,-6.036419153213501,7.094797849655151,2020-03-03 20:00:41.451000-06:00,2020-03-03 20:00
1583287241501.0,2.9743144512176514,-5.995787620544434,7.065794467926025,2020-03-03 20:00:41.501000-06:00,2020-03-03 20:00
1583287241551.0,2.993433952331543,-6.025731325149536,7.024334669113159,2020-03-03 20:00:41.551000-06:00,2020-03-03 20:00
1583287241601.0,3.0567378997802734,-5.9658613204956055,7.01802396774292,2020-03-03 20:00:41.601000-06:00,2020-03-03 20:00
1583287241651.0,3.5039939880371094,-5.52093505859375,6.585304260253906,2020-03-03 20:00:41.651000-06:00,2020-03-03 20:00
1583287241701.0,4.0639495849609375,-5.752815246582031,7.7670440673828125,2020-03-03 20:00:41.701000-06:00,2020-03-03 20:00
1583287241751.0,2.940887451171875,-5.948489665985107,7.599266052246094,2020-03-03 20:00:41.751000-06:00,2020-03-03 20:00
1583287241801.0,2.6107826232910156,-5.235084533691406,7.059356689453125,2020-03-03 20:00:41.801000-06:00,2020-03-03 20:00
1583287241851.0,3.49169921875,-5.090512752532959,7.63690185546875,2020-03-03 20:00:41.851000-06:00,2020-03-03 20:00
1583287241901.0,3.7298402786254883,-4.70146369934082,8.125268936157227,2020-03-03 20:00:41.901000-06:00,2020-03-03 20:00
1583287241951.0,3.6633963584899902,-4.737469673156738,7.848026275634766,2020-03-03 20:00:41.951000-06:00,2020-03-03 20:00
1583287242001.0,3.603489875793457,-4.60550594329834,8.10983657836914,2020-03-03 20:00:42.001000-06:00,2020-03-03 20:00
1583287242051.0,3.577940583229065,-3.7501983642578125,8.584304809570312,2020-03-03 20:00:42.051000-06:00,2020-03-03 20:00
1583287242101.0,3.847820281982422,-3.662198066711426,8.372720718383789,2020-03-03 20:00:42.101000-06:00,2020-03-03 20:00
1583287242151.0,4.1259002685546875,-3.510209083557129,8.536256790161133,2020-03-03 20:00:42.151000-06:00,2020-03-03 20:00
1583287242201.0,4.164108037948608,-3.061826705932617,8.863870620727539,2020-03-03 20:00:42.201000-06:00,2020-03-03 20:00
1583287242251.0,4.069211006164551,-2.840150833129883,8.602935791015625,2020-03-03 20:00:42.251000-06:00,2020-03-03 20:00
1583287242301.0,3.9645442962646484,-3.079315185546875,8.46942400932312,2020-03-03 20:00:42.301000-06:00,2020-03-03 20:00
1583287242351.0,3.7980270385742188,-2.876331329345703,8.338449478149414,2020-03-03 20:00:42.351000-06:00,2020-03-03 20:00
1583287242401.0,3.663985252380371,-2.3594436645507812,8.380885124206543,2020-03-03 20:00:42.401000-06:00,2020-03-03 20:00
1583287242451.0,3.7677793502807617,-2.587648391723633,8.483924388885498,2020-03-03 20:00:42.451000-06:00,2020-03-03 20:00
1583287242501.0,3.988589286804199,-2.9858741760253906,8.439043045043945,2020-03-03 20:00:42.501000-06:00,2020-03-03 20:00
1583287242551.0,4.052249848842621,-3.297849655151367,8.387178421020508,2020-03-03 20:00:42.551000-06:00,2020-03-03 20:00
1583287242601.0,4.019837379455566,-3.6605396270751953,8.17187213897705,2020-03-03 20:00:42.601000-06:00,2020-03-03 20:00
1583287242651.0,4.141983985900879,-3.8369016647338867,8.185619354248047,2020-03-03 20:00:42.651000-06:00,2020-03-03 20:00
1583287242701.0,4.392709732055664,-4.235624313354492,8.22493577003479,2020-03-03 20:00:42.701000-06:00,2020-03-03 20:00
1583287242751.0,4.553560256958008,-4.405839920043945,8.297943592071533,2020-03-03 20:00:42.751000-06:00,2020-03-03 20:00
1583287242801.0,4.8363037109375,-3.9073143005371094,8.374810218811035,2020-03-03 20:00:42.801000-06:00,2020-03-03 20:00
1583287242851.0,5.179534912109375,-3.3024063110351562,8.56440544128418,2020-03-03 20:00:42.851000-06:00,2020-03-03 20:00
1583287242901.0,5.477836608886719,-2.6798858642578125,8.906148910522461,2020-03-03 20:00:42.901000-06:00,2020-03-03 20:00
1583287242951.0,5.526910305023193,-2.2163143157958984,8.981717228889465,2020-03-03 20:00:42.951000-06:00,2020-03-03 20:00
1583287243001.0,4.875469207763672,-1.7499332427978516,8.310577392578125,2020-03-03 20:00:43.001000-06:00,2020-03-03 20:00
1583287243051.0,3.8606529235839844,-3.0922470092773438,7.910063743591309,2020-03-03 20:00:43.051000-06:00,2020-03-03 20:00
1583287243101.0,3.6952404975891113,-2.6370468139648438,7.937518119812012,2020-03-03 20:00:43.101000-06:00,2020-03-03 20:00
1583287243151.0,4.449623107910156,-1.6992034912109375,7.816657066345215,2020-03-03 20:00:43.151000-06:00,2020-03-03 20:00
1583287243201.0,5.3838043212890625,-2.795562744140625,7.82747745513916,2020-03-03 20:00:43.201000-06:00,2020-03-03 20:00
1583287243251.0,5.365758895874023,-2.748870849609375,7.782819747924805,2020-03-03 20:00:43.251000-06:00,2020-03-03 20:00
1583287243301.0,5.06843376159668,-2.851245880126953,8.386985778808594,2020-03-03 20:00:43.301000-06:00,2020-03-03 20:00
1583287243351.0,4.996927708387375,-2.4746017456054688,8.585601329803467,2020-03-03 20:00:43.351000-06:00,2020-03-03 20:00
1583287243401.0,4.960599899291992,-2.1561594009399414,8.486961364746094,2020-03-03 20:00:43.401000-06:00,2020-03-03 20:00
1583287243451.0,4.736473083496094,-2.8301734924316406,8.546510696411133,2020-03-03 20:00:43.451000-06:00,2020-03-03 20:00
1583287243501.0,4.369470596313477,-3.92437744140625,7.907932281494141,2020-03-03 20:00:43.501000-06:00,2020-03-03 20:00
1583287243551.0,3.8643035888671875,-4.633869171142578,6.686088562011719,2020-03-03 20:00:43.551000-06:00,2020-03-03 20:00
1583287243601.0,4.158882141113281,-5.320674896240234,7.668525695800781,2020-03-03 20:00:43.601000-06:00,2020-03-03 20:00
1583287243651.0,4.557012557983398,-4.121223449707031,8.347801208496094,2020-03-03 20:00:43.651000-06:00,2020-03-03 20:00
1583287243701.0,4.416858673095703,-3.2517356872558594,7.579978942871094,2020-03-03 20:00:43.701000-06:00,2020-03-03 20:00
1583287243751.0,4.522311210632324,-3.9691162109375,7.8181610107421875,2020-03-03 20:00:43.751000-06:00,2020-03-03 20:00
1583287243801.0,4.544902920722961,-3.9665298461914062,8.023927211761475,2020-03-03 20:00:43.801000-06:00,2020-03-03 20:00
1583287243851.0,4.3154449462890625,-3.8218002319335938,7.856101036071777,2020-03-03 20:00:43.851000-06:00,2020-03-03 20:00
1583287243901.0,4.310751438140869,-4.0456390380859375,8.121858596801758,2020-03-03 20:00:43.901000-06:00,2020-03-03 20:00
1583287243951.0,4.347414493560791,-3.9702444076538086,8.168438911437988,2020-03-03 20:00:43.951000-06:00,2020-03-03 20:00
1583287244001.0,4.358744651079178,-4.116281509399414,8.13155746459961,2020-03-03 20:00:44.001000-06:00,2020-03-03 20:00
1583287244051.0,4.199337959289551,-3.5230255126953125,8.250903129577637,2020-03-03 20:00:44.051000-06:00,2020-03-03 20:00
1583287244101.0,4.025625228881836,-2.765155792236328,8.246302366256714,2020-03-03 20:00:44.101000-06:00,2020-03-03 20:00
1583287244151.0,4.028221130371094,-2.8738021850585938,8.08781623840332,2020-03-03 20:00:44.151000-06:00,2020-03-03 20:00
1583287244201.0,4.102289199829102,-3.0476317405700684,8.263849258422852,2020-03-03 20:00:44.201000-06:00,2020-03-03 20:00
1583287244251.0,4.411750793457031,-3.5931968688964844,8.759037017822266,2020-03-03 20:00:44.251000-06:00,2020-03-03 20:00
1583287244301.0,4.5563740730285645,-3.5113487243652344,8.562471389770508,2020-03-03 20:00:44.301000-06:00,2020-03-03 20:00
1583287244351.0,4.472411632537842,-3.1301193237304688,8.20477294921875,2020-03-03 20:00:44.351000-06:00,2020-03-03 20:00
1583287244401.0,4.43048757314682,-3.235867500305176,8.31539249420166,2020-03-03 20:00:44.401000-06:00,2020-03-03 20:00
1583287244451.0,4.418694853782654,-3.4323654174804688,8.197569847106934,2020-03-03 20:00:44.451000-06:00,2020-03-03 20:00
1583287244501.0,4.518564701080322,-3.320706367492676,8.226217269897461,2020-03-03 20:00:44.501000-06:00,2020-03-03 20:00
1583287244551.0,4.574143290519714,-3.225693464279175,8.317055702209473,2020-03-03 20:00:44.551000-06:00,2020-03-03 20:00
1583287244601.0,4.619998931884766,-3.314271926879883,8.150508880615234,2020-03-03 20:00:44.601000-06:00,2020-03-03 20:00
1583287244651.0,4.613468408584595,-3.3956551551818848,8.126723527908325,2020-03-03 20:00:44.651000-06:00,2020-03-03 20:00
1583287244701.0,4.565675735473633,-3.3802502155303955,8.141239404678345,2020-03-03 20:00:44.701000-06:00,2020-03-03 20:00
1583287244751.0,4.5332111120224,-3.4044222831726074,8.101373672485352,2020-03-03 20:00:44.751000-06:00,2020-03-03 20:00
1583287244801.0,4.513333320617676,-3.459679126739502,8.0669105052948,2020-03-03 20:00:44.801000-06:00,2020-03-03 20:00
1583287244851.0,4.550292253494263,-3.4067206382751465,8.146010398864746,2020-03-03 20:00:44.851000-06:00,2020-03-03 20:00
1583287244901.0,4.581432342529297,-3.394222766160965,8.128495216369629,2020-03-03 20:00:44.901000-06:00,2020-03-03 20:00
1583287244951.0,4.571270704269409,-3.435481309890747,8.094406366348267,2020-03-03 20:00:44.951000-06:00,2020-03-03 20:00
1583287245001.0,4.569272473454475,-3.410989761352539,8.089698731899261,2020-03-03 20:00:45.001000-06:00,2020-03-03 20:00
1583287245051.0,4.613182067871094,-3.2814254760742188,8.212270736694336,2020-03-03 20:00:45.051000-06:00,2020-03-03 20:00
1583287245101.0,4.574875354766846,-3.298063278198242,8.230098605155945,2020-03-03 20:00:45.101000-06:00,2020-03-03 20:00
1583287245151.0,4.581936478614807,-3.252840995788574,8.179229259490967,2020-03-03 20:00:45.151000-06:00,2020-03-03 20:00
1583287245201.0,4.587161898612976,-3.274540901184082,8.15102231502533,2020-03-03 20:00:45.201000-06:00,2020-03-03 20:00
1583287245251.0,4.570900082588196,-3.2924241423606873,8.23526382446289,2020-03-03 20:00:45.251000-06:00,2020-03-03 20:00
1583287245301.0,4.546393871307373,-3.3069618344306946,8.20916748046875,2020-03-03 20:00:45.301000-06:00,2020-03-03 20:00
1583287245351.0,4.645235061645508,-3.2854026556015015,8.162946462631226,2020-03-03 20:00:45.351000-06:00,2020-03-03 20:00
1583287245401.0,4.638127565383911,-3.2827841341495514,8.133550882339478,2020-03-03 20:00:45.401000-06:00,2020-03-03 20:00
1583287245451.0,4.584539890289307,-3.322450637817383,8.133906662464142,2020-03-03 20:00:45.451000-06:00,2020-03-03 20:00
1583287245501.0,4.596110224723816,-3.3663830757141113,8.139295756816864,2020-03-03 20:00:45.501000-06:00,2020-03-03 20:00
1583287245551.0,4.615033268928528,-3.2809362411499023,8.130557715892792,2020-03-03 20:00:45.551000-06:00,2020-03-03 20:00
1583287245601.0,4.609263241291046,-3.334394931793213,8.142544269561768,2020-03-03 20:00:45.601000-06:00,2020-03-03 20:00
1583287245651.0,4.631691575050354,-3.358969286084175,8.160189151763916,2020-03-03 20:00:45.651000-06:00,2020-03-03 20:00
1583287245701.0,4.631497919559479,-3.330040454864502,8.127078771591187,2020-03-03 20:00:45.701000-06:00,2020-03-03 20:00
1583287245751.0,4.625507980585098,-3.2729833126068115,8.188828945159912,2020-03-03 20:00:45.751000-06:00,2020-03-03 20:00
1583287245801.0,4.638585448265076,-3.275554656982422,8.167320489883423,2020-03-03 20:00:45.801000-06:00,2020-03-03 20:00
1583287245851.0,4.665709018707275,-3.2759129405021667,8.150294333696365,2020-03-03 20:00:45.851000-06:00,2020-03-03 20:00
1583287245901.0,4.627543687820435,-3.281888782978058,8.142738699913025,2020-03-03 20:00:45.901000-06:00,2020-03-03 20:00
1583287245951.0,4.613181754946709,-3.27864870429039,8.169213771820068,2020-03-03 20:00:45.951000-06:00,2020-03-03 20:00
1583287246001.0,4.6616175174713135,-3.3132059574127197,8.154395699501038,2020-03-03 20:00:46.001000-06:00,2020-03-03 20:00
1583287246051.0,4.639100074768066,-3.2831292152404785,8.14404782652855,2020-03-03 20:00:46.051000-06:00,2020-03-03 20:00
1583287246101.0,4.632316768169403,-3.260972738265991,8.15596854686737,2020-03-03 20:00:46.101000-06:00,2020-03-03 20:00
1583287246151.0,4.620507121086121,-3.2520408034324646,8.16474249958992,2020-03-03 20:00:46.151000-06:00,2020-03-03 20:00
1583287246201.0,4.616775482369121,-3.2779784202575684,8.160611152648926,2020-03-03 20:00:46.201000-06:00,2020-03-03 20:00
1583287246251.0,4.613978713750839,-3.302899956703186,8.14382529258728,2020-03-03 20:00:46.251000-06:00,2020-03-03 20:00
1583287246301.0,4.630850434303284,-3.284611940383911,8.147769629955292,2020-03-03 20:00:46.301000-06:00,2020-03-03 20:00
1583287246351.0,4.680850267410278,-3.3070578575134277,8.146245390176773,2020-03-03 20:00:46.351000-06:00,2020-03-03 20:00
1583287246401.0,4.658321142196655,-3.2990543842315674,8.149659156799316,2020-03-03 20:00:46.401000-06:00,2020-03-03 20:00
1583287246451.0,4.62827742099762,-3.2940668836236,8.14756041765213,2020-03-03 20:00:46.451000-06:00,2020-03-03 20:00
1583287246501.0,4.642183303833008,-3.2863505482673645,8.156617522239685,2020-03-03 20:00:46.501000-06:00,2020-03-03 20:00
1583287246551.0,4.674908399581909,-3.279879093170166,8.142607927322388,2020-03-03 20:00:46.551000-06:00,2020-03-03 20:00
1583287246601.0,4.674105763435364,-3.283144623041153,8.116726636886597,2020-03-03 20:00:46.601000-06:00,2020-03-03 20:00
1583287246651.0,4.60735559463501,-3.3072863817214966,8.166643142700195,2020-03-03 20:00:46.651000-06:00,2020-03-03 20:00
1583287246701.0,4.593172162771225,-3.2912269830703735,8.166916608810425,2020-03-03 20:00:46.701000-06:00,2020-03-03 20:00
1583287246751.0,4.681957721710205,-3.3132903575897217,8.117589473724365,2020-03-03 20:00:46.751000-06:00,2020-03-03 20:00
1583287246801.0,4.680949687957764,-3.356920003890991,8.129005670547485,2020-03-03 20:00:46.801000-06:00,2020-03-03 20:00
1583287246851.0,4.63137149810791,-3.3252360820770264,8.130068361759186,2020-03-03 20:00:46.851000-06:00,2020-03-03 20:00
1583287246901.0,4.647665023803711,-3.3101688474416733,8.131872594356537,2020-03-03 20:00:46.901000-06:00,2020-03-03 20:00
1583287246951.0,4.663625597953796,-3.3333226442337036,8.119909524917603,2020-03-03 20:00:46.951000-06:00,2020-03-03 20:00
1583287247001.0,4.62716817855835,-3.3680343627929688,8.110325992107391,2020-03-03 20:00:47.001000-06:00,2020-03-03 20:00
1583287247051.0,4.648171901702881,-3.3673564195632935,8.124375820159912,2020-03-03 20:00:47.051000-06:00,2020-03-03 20:00
1583287247101.0,4.677490711212158,-3.3463847637176514,8.10324764251709,2020-03-03 20:00:47.101000-06:00,2020-03-03 20:00
1583287247151.0,4.638047695159912,-3.367985725402832,8.115165829658508,2020-03-03 20:00:47.151000-06:00,2020-03-03 20:00
1583287247201.0,4.6286363154649734,-3.385395050048828,8.126348167657852,2020-03-03 20:00:47.201000-06:00,2020-03-03 20:00
1583287247251.0,4.675295114517212,-3.3877031169831753,8.093444108963013,2020-03-03 20:00:47.251000-06:00,2020-03-03 20:00
1583287247301.0,4.644388914108276,-3.355478525161743,8.104493498802185,2020-03-03 20:00:47.301000-06:00,2020-03-03 20:00
1583287247351.0,4.5898659229278564,-3.3801865577697754,8.141840696334839,2020-03-03 20:00:47.351000-06:00,2020-03-03 20:00
1583287247401.0,4.654060363769531,-3.3975692987442017,8.104004859924316,2020-03-03 20:00:47.401000-06:00,2020-03-03 20:00
1583287247451.0,4.673777148127556,-3.400366596877575,8.090180352330208,2020-03-03 20:00:47.451000-06:00,2020-03-03 20:00
1583287247501.0,4.629778623580933,-3.397337466478348,8.111103653907776,2020-03-03 20:00:47.501000-06:00,2020-03-03 20:00
1583287247551.0,4.611700385808945,-3.41814923286438,8.11321371793747,2020-03-03 20:00:47.551000-06:00,2020-03-03 20:00
1583287247601.0,4.619593977928162,-3.4014720916748047,8.09102201461792,2020-03-03 20:00:47.601000-06:00,2020-03-03 20:00
1583287247651.0,4.657210826873779,-3.388385385274887,8.08767582476139,2020-03-03 20:00:47.651000-06:00,2020-03-03 20:00
1583287247701.0,4.629735231399536,-3.405026078224182,8.119755029678345,2020-03-03 20:00:47.701000-06:00,2020-03-03 20:00
1583287247751.0,4.596059322357178,-3.400918483734131,8.108660578727722,2020-03-03 20:00:47.751000-06:00,2020-03-03 20:00
1583287247801.0,4.635156869888306,-3.3862504363059998,8.099583879113197,2020-03-03 20:00:47.801000-06:00,2020-03-03 20:00
1583287247851.0,4.671666622161865,-3.3690881729125977,8.141046285629272,2020-03-03 20:00:47.851000-06:00,2020-03-03 20:00
1583287247901.0,4.66212260723114,-3.37920606136322,8.106045961380005,2020-03-03 20:00:47.901000-06:00,2020-03-03 20:00
1583287247951.0,4.629632234573364,-3.374396324157715,8.10782277584076,2020-03-03 20:00:47.951000-06:00,2020-03-03 20:00
1583287248001.0,4.643015384674072,-3.371491420431994,8.108424752950668,2020-03-03 20:00:48.001000-06:00,2020-03-03 20:00
1583287248051.0,4.666245698928833,-3.3693498969078064,8.1006298661232,2020-03-03 20:00:48.051000-06:00,2020-03-03 20:00
1583287248101.0,4.639416456222534,-3.364291101694107,8.120540499687195,2020-03-03 20:00:48.101000-06:00,2020-03-03 20:00
1583287248151.0,4.638847887516022,-3.3457305431365967,8.126842794939876,2020-03-03 20:00:48.151000-06:00,2020-03-03 20:00
1583287248201.0,4.644696593284607,-3.325795531272888,8.117595791816711,2020-03-03 20:00:48.201000-06:00,2020-03-03 20:00
1583287248251.0,4.661975860595703,-3.3547794818878174,8.12442922592163,2020-03-03 20:00:48.251000-06:00,2020-03-03 20:00
1583287248301.0,4.654896259307861,-3.3654594868421555,8.109504342079163,2020-03-03 20:00:48.301000-06:00,2020-03-03 20:00
1583287248351.0,4.651654504239559,-3.347669005393982,8.118306517601013,2020-03-03 20:00:48.351000-06:00,2020-03-03 20:00
1583287248401.0,4.65679931640625,-3.321733236312866,8.119264006614685,2020-03-03 20:00:48.401000-06:00,2020-03-03 20:00
1583287248451.0,4.660843461751938,-3.3446900844573975,8.141444325447083,2020-03-03 20:00:48.451000-06:00,2020-03-03 20:00
1583287248501.0,4.646029233932495,-3.3338916301727295,8.117309808731079,2020-03-03 20:00:48.501000-06:00,2020-03-03 20:00
1583287248551.0,4.583514213562012,-3.329110763967037,8.141445398330688,2020-03-03 20:00:48.551000-06:00,2020-03-03 20:00
1583287248601.0,4.6315693855285645,-3.347084164619446,8.139900386333466,2020-03-03 20:00:48.601000-06:00,2020-03-03 20:00
1583287248651.0,4.6815268993377686,-3.3796417713165283,8.098329544067383,2020-03-03 20:00:48.651000-06:00,2020-03-03 20:00
1583287248701.0,4.635397911071777,-3.3556761741638184,8.134510040283203,2020-03-03 20:00:48.701000-06:00,2020-03-03 20:00
1583287248751.0,4.626014351844788,-3.338920295238495,8.134334087371826,2020-03-03 20:00:48.751000-06:00,2020-03-03 20:00
1583287248801.0,4.639193952083588,-3.3294573426246643,8.143816113471985,2020-03-03 20:00:48.801000-06:00,2020-03-03 20:00
1583287248851.0,4.631032645702362,-3.351552367210388,8.13609528541565,2020-03-03 20:00:48.851000-06:00,2020-03-03 20:00
1583287248901.0,4.647236704826355,-3.3615832924842834,8.115090608596802,2020-03-03 20:00:48.901000-06:00,2020-03-03 20:00
1583287248951.0,4.644124329090118,-3.335846185684204,8.130839228630066,2020-03-03 20:00:48.951000-06:00,2020-03-03 20:00
1583287249001.0,4.638469412922859,-3.349564552307129,8.158509850502014,2020-03-03 20:00:49.001000-06:00,2020-03-03 20:00
1583287249051.0,4.607280015945435,-3.3464134335517883,8.134209871292114,2020-03-03 20:00:49.051000-06:00,2020-03-03 20:00
1583287249101.0,4.618874549865723,-3.32418429851532,8.126376956701279,2020-03-03 20:00:49.101000-06:00,2020-03-03 20:00
1583287249151.0,4.6648242473602295,-3.3245702981948853,8.11293113231659,2020-03-03 20:00:49.151000-06:00,2020-03-03 20:00
