Time,accX,accY,accZ,DT,Hour
1583287200012.0,-2.7670586,-6.1377754,6.544816,2020-03-03 20:00:00.012000-06:00,2020-03-03 20:00
1583287200062.0,-2.870803,-4.5158467,7.6333885,2020-03-03 20:00:00.062000-06:00,2020-03-03 20:00
1583287200113.0,-2.8135168999999998,-5.564814,7.469728999999999,2020-03-03 20:00:00.113000-06:00,2020-03-03 20:00
1583287200163.0,-2.5949264,-6.859796,6.7418647,2020-03-03 20:00:00.163000-06:00,2020-03-03 20:00
1583287200213.0,-2.750365,-6.9158645000000005,6.3332205,2020-03-03 20:00:00.213000-06:00,2020-03-03 20:00
1583287200263.0,-2.999917,-6.065384,6.014435,2020-03-03 20:00:00.263000-06:00,2020-03-03 20:00
1583287200313.0,-2.5612717000000003,-8.597529,3.6847142999999996,2020-03-03 20:00:00.313000-06:00,2020-03-03 20:00
1583287200363.0,-2.6953058,-8.833991000000001,2.837361,2020-03-03 20:00:00.363000-06:00,2020-03-03 20:00
1583287200413.0,-2.933272,-7.069864999999999,2.7206650000000003,2020-03-03 20:00:00.413000-06:00,2020-03-03 20:00
1583287200463.0,-2.4218106,-11.778594,-1.9614284,2020-03-03 20:00:00.463000-06:00,2020-03-03 20:00
1583287200513.0,-2.2369797,-11.287716,-1.9189247,2020-03-03 20:00:00.513000-06:00,2020-03-03 20:00
1583287200562.0,-2.286505,-7.250138000000001,3.4384690000000004,2020-03-03 20:00:00.562000-06:00,2020-03-03 20:00
1583287200612.0,-2.656072,-5.612813,7.6215,2020-03-03 20:00:00.612000-06:00,2020-03-03 20:00
1583287200662.0,-3.1200206,-5.4438705,8.253025,2020-03-03 20:00:00.662000-06:00,2020-03-03 20:00
1583287200712.0,-3.4229053999999994,-4.2756186,8.482594,2020-03-03 20:00:00.712000-06:00,2020-03-03 20:00
1583287200763.0,-3.2589314,-3.4240701000000002,8.400267999999999,2020-03-03 20:00:00.763000-06:00,2020-03-03 20:00
1583287200813.0,-3.197698,-3.4631642999999994,7.8743495999999995,2020-03-03 20:00:00.813000-06:00,2020-03-03 20:00
1583287200863.0,-3.0983330000000002,-2.0234098,8.482286,2020-03-03 20:00:00.863000-06:00,2020-03-03 20:00
1583287200912.0,-2.8808792000000003,-1.88277,8.150196000000001,2020-03-03 20:00:00.912000-06:00,2020-03-03 20:00
1583287200962.0,-3.0401912,-3.576774,8.44675,2020-03-03 20:00:00.962000-06:00,2020-03-03 20:00
1583287201012.0,-3.3836825,-4.738333,8.302321000000001,2020-03-03 20:00:01.012000-06:00,2020-03-03 20:00
1583287201062.0,-3.6430972,-4.138669,8.574745,2020-03-03 20:00:01.062000-06:00,2020-03-03 20:00
1583287201112.0,-3.7903404000000003,-4.102899,8.31612,2020-03-03 20:00:01.112000-06:00,2020-03-03 20:00
1583287201162.0,-3.4951746,-2.762156,8.999416,2020-03-03 20:00:01.162000-06:00,2020-03-03 20:00
1583287201213.0,-3.2748267999999996,-2.215321,8.83036,2020-03-03 20:00:01.213000-06:00,2020-03-03 20:00
1583287201262.0,-3.4314519999999997,-2.0277436,8.9845085,2020-03-03 20:00:01.262000-06:00,2020-03-03 20:00
1583287201312.0,-3.210243,-2.0103953000000003,8.6339445,2020-03-03 20:00:01.312000-06:00,2020-03-03 20:00
1583287201362.0,-3.050188,-1.8364763,8.719559,2020-03-03 20:00:01.362000-06:00,2020-03-03 20:00
1583287201413.0,-2.9367476000000003,-2.5917366000000004,8.878834,2020-03-03 20:00:01.413000-06:00,2020-03-03 20:00
1583287201462.0,-2.6784945,-2.1366248,9.556549,2020-03-03 20:00:01.462000-06:00,2020-03-03 20:00
1583287201513.0,-2.4114285,-1.154505,9.923122,2020-03-03 20:00:01.513000-06:00,2020-03-03 20:00
1583287201562.0,-2.417663,-2.2552872,9.247061,2020-03-03 20:00:01.562000-06:00,2020-03-03 20:00
1583287201612.0,-2.4013082999999997,-1.9022637999999998,9.235961,2020-03-03 20:00:01.612000-06:00,2020-03-03 20:00
1583287201662.0,-2.2170794,-4.594911,6.624228,2020-03-03 20:00:01.662000-06:00,2020-03-03 20:00
1583287201712.0,-2.606657,-9.679077000000001,5.825617299999999,2020-03-03 20:00:01.712000-06:00,2020-03-03 20:00
1583287201763.0,-4.1586804,-10.029705,4.2672099999999995,2020-03-03 20:00:01.763000-06:00,2020-03-03 20:00
1583287201812.0,-5.4103384000000005,-13.764118,2.631453,2020-03-03 20:00:01.812000-06:00,2020-03-03 20:00
1583287201863.0,-5.960525,-11.925295,3.5785415,2020-03-03 20:00:01.863000-06:00,2020-03-03 20:00
1583287201913.0,-5.7205453,-9.408078,3.3244260000000003,2020-03-03 20:00:01.913000-06:00,2020-03-03 20:00
1583287201962.0,-5.4580054,-5.138321400000001,4.1251125,2020-03-03 20:00:01.962000-06:00,2020-03-03 20:00
1583287202013.0,-5.117466,-3.4754832,4.0125356,2020-03-03 20:00:02.013000-06:00,2020-03-03 20:00
1583287202063.0,-5.228088,-2.4457798,3.8148503,2020-03-03 20:00:02.063000-06:00,2020-03-03 20:00
1583287202112.0,-5.61596,-1.9171735,3.7186767999999994,2020-03-03 20:00:02.112000-06:00,2020-03-03 20:00
1583287202163.0,-6.9470496,-2.0286223999999997,3.3562284,2020-03-03 20:00:02.163000-06:00,2020-03-03 20:00
1583287202213.0,-7.5843286999999995,-2.2258603999999997,3.4904919999999997,2020-03-03 20:00:02.213000-06:00,2020-03-03 20:00
1583287202262.0,-7.830913000000001,-2.6952648,3.2503695,2020-03-03 20:00:02.262000-06:00,2020-03-03 20:00
1583287202313.0,-7.623442,-2.205756,3.6530237000000003,2020-03-03 20:00:02.313000-06:00,2020-03-03 20:00
1583287202363.0,-6.6930466,-1.3554363999999999,3.9287102,2020-03-03 20:00:02.363000-06:00,2020-03-03 20:00
1583287202412.0,-5.5090794999999995,-0.5587614000000001,3.5786498,2020-03-03 20:00:02.412000-06:00,2020-03-03 20:00
1583287202463.0,-4.2954445,-0.11496369999999999,3.0990857999999997,2020-03-03 20:00:02.463000-06:00,2020-03-03 20:00
1583287202512.0,-3.954277,-1.4184212999999999,2.3438156,2020-03-03 20:00:02.512000-06:00,2020-03-03 20:00
1583287202563.0,-2.8133516,-4.599646,1.6953116999999998,2020-03-03 20:00:02.563000-06:00,2020-03-03 20:00
1583287202613.0,-2.0089984,-9.4199295,0.5409388,2020-03-03 20:00:02.613000-06:00,2020-03-03 20:00
1583287202663.0,-0.7489803,-12.407727000000001,-1.0853124,2020-03-03 20:00:02.663000-06:00,2020-03-03 20:00
1583287202713.0,0.68489546,-14.9344225,-1.8382492,2020-03-03 20:00:02.713000-06:00,2020-03-03 20:00
1583287202763.0,1.0089324,-15.30805,-1.2624737,2020-03-03 20:00:02.763000-06:00,2020-03-03 20:00
1583287202813.0,1.5713587,-16.178192000000003,-1.8049737000000001,2020-03-03 20:00:02.813000-06:00,2020-03-03 20:00
1583287202863.0,1.7054522,-11.291105,-2.2315869999999998,2020-03-03 20:00:02.863000-06:00,2020-03-03 20:00
1583287202912.0,2.127889,-6.0618734000000005,-1.9662578999999998,2020-03-03 20:00:02.912000-06:00,2020-03-03 20:00
1583287202962.0,2.9790866,-7.757766,-2.1010702,2020-03-03 20:00:02.962000-06:00,2020-03-03 20:00
1583287203013.0,3.1902122000000004,-10.476977,-2.360666,2020-03-03 20:00:03.013000-06:00,2020-03-03 20:00
1583287203063.0,2.9182832000000003,-9.3248205,-1.1431742,2020-03-03 20:00:03.063000-06:00,2020-03-03 20:00
1583287203112.0,2.8072348,-8.44897,-0.5643560000000001,2020-03-03 20:00:03.112000-06:00,2020-03-03 20:00
1583287203162.0,2.9675474,-9.066837,-0.5601480999999999,2020-03-03 20:00:03.162000-06:00,2020-03-03 20:00
1583287203213.0,3.0343106,-9.190082,-0.7723908,2020-03-03 20:00:03.213000-06:00,2020-03-03 20:00
1583287203262.0,3.0384676,-9.021507000000001,-1.0672734,2020-03-03 20:00:03.262000-06:00,2020-03-03 20:00
1583287203313.0,3.025643,-8.892389999999999,-0.5442123999999999,2020-03-03 20:00:03.313000-06:00,2020-03-03 20:00
1583287203363.0,3.0061436,-9.167023,-0.8645406999999999,2020-03-03 20:00:03.363000-06:00,2020-03-03 20:00
1583287203412.0,2.8153975,-8.970571000000001,-0.85304475,2020-03-03 20:00:03.412000-06:00,2020-03-03 20:00
1583287203463.0,2.841713,-9.146279,-1.1705451,2020-03-03 20:00:03.463000-06:00,2020-03-03 20:00
1583287203512.0,2.9426862999999996,-9.210606,-1.18836,2020-03-03 20:00:03.512000-06:00,2020-03-03 20:00
1583287203562.0,2.9357822000000002,-8.970785000000001,-0.89931846,2020-03-03 20:00:03.562000-06:00,2020-03-03 20:00
1583287203613.0,2.9718182,-9.060785000000001,-0.96708256,2020-03-03 20:00:03.613000-06:00,2020-03-03 20:00
1583287203662.0,2.985204,-9.043107000000001,-0.9510837,2020-03-03 20:00:03.662000-06:00,2020-03-03 20:00
1583287203712.0,2.9853970000000003,-9.062264,-0.9843905000000001,2020-03-03 20:00:03.712000-06:00,2020-03-03 20:00
1583287203763.0,3.003998,-9.044103999999999,-0.8623581,2020-03-03 20:00:03.763000-06:00,2020-03-03 20:00
1583287203813.0,3.0039594,-9.013164,-0.79559535,2020-03-03 20:00:03.813000-06:00,2020-03-03 20:00
1583287203862.0,3.0191386000000002,-9.049917,-0.9228655000000001,2020-03-03 20:00:03.862000-06:00,2020-03-03 20:00
1583287203913.0,2.9994645,-9.0102005,-0.84258026,2020-03-03 20:00:03.913000-06:00,2020-03-03 20:00
1583287203963.0,2.9973996,-9.047732,-0.8413103000000001,2020-03-03 20:00:03.963000-06:00,2020-03-03 20:00
1583287204012.0,3.0190325000000002,-9.063153,-0.7485136,2020-03-03 20:00:04.012000-06:00,2020-03-03 20:00
1583287204062.0,3.0675310000000002,-9.007691000000001,-0.7951286,2020-03-03 20:00:04.062000-06:00,2020-03-03 20:00
1583287204113.0,3.0209900000000003,-9.042411999999999,-0.8162848,2020-03-03 20:00:04.113000-06:00,2020-03-03 20:00
1583287204162.0,3.0170152000000003,-9.066784,-0.83463764,2020-03-03 20:00:04.162000-06:00,2020-03-03 20:00
1583287204212.0,3.0062716,-8.995714999999999,-0.7611446,2020-03-03 20:00:04.212000-06:00,2020-03-03 20:00
1583287204262.0,3.0021906000000005,-9.063948,-0.8683851,2020-03-03 20:00:04.262000-06:00,2020-03-03 20:00
1583287204312.0,2.9854379,-9.060312,-0.73073655,2020-03-03 20:00:04.312000-06:00,2020-03-03 20:00
1583287204362.0,3.0143125,-8.999504,-0.7677013,2020-03-03 20:00:04.362000-06:00,2020-03-03 20:00
1583287204412.0,2.9610243,-9.093910000000001,-0.8943760000000001,2020-03-03 20:00:04.412000-06:00,2020-03-03 20:00
1583287204462.0,2.9510113999999996,-8.983741,-0.6865868,2020-03-03 20:00:04.462000-06:00,2020-03-03 20:00
1583287204512.0,2.9365284,-9.261782,-0.82923865,2020-03-03 20:00:04.512000-06:00,2020-03-03 20:00
1583287204562.0,2.7978537,-8.95771,-0.42038363,2020-03-03 20:00:04.562000-06:00,2020-03-03 20:00
1583287204612.0,2.8198838,-9.1839075,-0.6788476999999999,2020-03-03 20:00:04.612000-06:00,2020-03-03 20:00
1583287204662.0,2.7540473999999997,-9.246858,-1.0521508,2020-03-03 20:00:04.662000-06:00,2020-03-03 20:00
1583287204712.0,2.7612343,-9.042452,-0.80366933,2020-03-03 20:00:04.712000-06:00,2020-03-03 20:00
1583287204763.0,2.862955,-9.194201,-0.6655001,2020-03-03 20:00:04.763000-06:00,2020-03-03 20:00
1583287204812.0,2.822567,-9.043524,-0.79150194,2020-03-03 20:00:04.812000-06:00,2020-03-03 20:00
1583287204863.0,2.8645005,-9.177147999999999,-0.805185,2020-03-03 20:00:04.863000-06:00,2020-03-03 20:00
1583287204912.0,2.9551609,-9.1245775,-0.57997453,2020-03-03 20:00:04.912000-06:00,2020-03-03 20:00
1583287204963.0,3.0189103999999998,-8.934982000000002,-0.4187298,2020-03-03 20:00:04.963000-06:00,2020-03-03 20:00
1583287205012.0,3.0113418,-9.110101,-0.3434204,2020-03-03 20:00:05.012000-06:00,2020-03-03 20:00
1583287205062.0,2.933291,-8.9633875,-0.46505585,2020-03-03 20:00:05.062000-06:00,2020-03-03 20:00
1583287205113.0,2.9561236,-9.187706,-0.71452236,2020-03-03 20:00:05.113000-06:00,2020-03-03 20:00
1583287205163.0,2.9739249,-9.031823,-0.50296366,2020-03-03 20:00:05.163000-06:00,2020-03-03 20:00
1583287205212.0,2.9783337000000003,-9.06748,-0.5654505999999999,2020-03-03 20:00:05.212000-06:00,2020-03-03 20:00
1583287205262.0,2.978365,-9.177688,-0.44607020000000003,2020-03-03 20:00:05.262000-06:00,2020-03-03 20:00
1583287205312.0,2.973553,-9.004281,-0.64889383,2020-03-03 20:00:05.312000-06:00,2020-03-03 20:00
1583287205362.0,2.9637215,-9.029785,-0.52355355,2020-03-03 20:00:05.362000-06:00,2020-03-03 20:00
1583287205412.0,2.9456717999999995,-9.037027,-0.5877199000000001,2020-03-03 20:00:05.412000-06:00,2020-03-03 20:00
1583287205462.0,2.932936,-9.2346525,-0.78541183,2020-03-03 20:00:05.462000-06:00,2020-03-03 20:00
1583287205512.0,2.8635037,-9.041345,-0.6790868,2020-03-03 20:00:05.512000-06:00,2020-03-03 20:00
1583287205563.0,2.9109955000000003,-9.0822,-0.51301116,2020-03-03 20:00:05.563000-06:00,2020-03-03 20:00
1583287205613.0,2.877738,-9.042356,-0.63164216,2020-03-03 20:00:05.613000-06:00,2020-03-03 20:00
1583287205662.0,2.834603,-9.019217,-0.8925911,2020-03-03 20:00:05.662000-06:00,2020-03-03 20:00
1583287205713.0,2.8597217,-9.1964445,-1.0125995,2020-03-03 20:00:05.713000-06:00,2020-03-03 20:00
1583287205763.0,2.780743,-9.114149000000001,-1.1825615,2020-03-03 20:00:05.763000-06:00,2020-03-03 20:00
1583287205812.0,2.8327812999999997,-9.01912,-1.3116508,2020-03-03 20:00:05.812000-06:00,2020-03-03 20:00
1583287205863.0,2.8700728,-9.087137,-1.3048333,2020-03-03 20:00:05.863000-06:00,2020-03-03 20:00
1583287205912.0,2.8400257,-9.02608,-1.0467418,2020-03-03 20:00:05.912000-06:00,2020-03-03 20:00
1583287205962.0,2.890145,-9.107887,-1.1585357,2020-03-03 20:00:05.962000-06:00,2020-03-03 20:00
1583287206012.0,2.9370152999999997,-9.087142,-1.3060751,2020-03-03 20:00:06.012000-06:00,2020-03-03 20:00
1583287206062.0,2.9351208,-8.978724,-1.2989311000000001,2020-03-03 20:00:06.062000-06:00,2020-03-03 20:00
1583287206113.0,3.0128121,-9.116094,-1.2401358,2020-03-03 20:00:06.113000-06:00,2020-03-03 20:00
1583287206163.0,3.0016646000000002,-8.918789,-0.92332345,2020-03-03 20:00:06.163000-06:00,2020-03-03 20:00
1583287206213.0,2.9855402,-8.9782715,-0.7204991999999999,2020-03-03 20:00:06.213000-06:00,2020-03-03 20:00
1583287206263.0,3.0602179,-9.040212,-1.0351799000000002,2020-03-03 20:00:06.263000-06:00,2020-03-03 20:00
1583287206313.0,3.1193763999999997,-8.978667999999999,-1.0514265,2020-03-03 20:00:06.313000-06:00,2020-03-03 20:00
1583287206363.0,3.0917587,-8.996277000000001,-0.9463275,2020-03-03 20:00:06.363000-06:00,2020-03-03 20:00
1583287206412.0,3.0846272,-9.009238999999999,-0.9786582,2020-03-03 20:00:06.412000-06:00,2020-03-03 20:00
1583287206462.0,3.089575,-9.004223,-0.9427780000000001,2020-03-03 20:00:06.462000-06:00,2020-03-03 20:00
1583287206512.0,3.0565796,-9.000455,-0.94800115,2020-03-03 20:00:06.512000-06:00,2020-03-03 20:00
1583287206562.0,3.0515516,-9.004812,-0.9311216999999998,2020-03-03 20:00:06.562000-06:00,2020-03-03 20:00
1583287206612.0,3.1594687,-9.026505,-0.92688966,2020-03-03 20:00:06.612000-06:00,2020-03-03 20:00
1583287206663.0,3.1587996,-8.921677,-0.81043327,2020-03-03 20:00:06.663000-06:00,2020-03-03 20:00
1583287206713.0,3.1441479,-9.0128565,-0.8646549000000001,2020-03-03 20:00:06.713000-06:00,2020-03-03 20:00
1583287206763.0,3.1458369999999998,-9.015578999999999,-1.0197488000000001,2020-03-03 20:00:06.763000-06:00,2020-03-03 20:00
1583287206812.0,3.1546395,-8.96948,-0.94256437,2020-03-03 20:00:06.812000-06:00,2020-03-03 20:00
1583287206863.0,3.1934779,-9.002303,-0.8859254000000001,2020-03-03 20:00:06.863000-06:00,2020-03-03 20:00
1583287206913.0,3.0938508999999996,-8.99966,-0.8715146,2020-03-03 20:00:06.913000-06:00,2020-03-03 20:00
1583287206963.0,3.0875127,-8.973171,-1.0339403,2020-03-03 20:00:06.963000-06:00,2020-03-03 20:00
1583287207012.0,3.173892,-9.036139,-1.1926112,2020-03-03 20:00:07.012000-06:00,2020-03-03 20:00
1583287207063.0,3.1550379,-8.922284,-1.0236002,2020-03-03 20:00:07.063000-06:00,2020-03-03 20:00
1583287207113.0,3.1700253,-8.941626,-1.0013570999999999,2020-03-03 20:00:07.113000-06:00,2020-03-03 20:00
1583287207162.0,3.1841009,-8.911778,-1.174326,2020-03-03 20:00:07.162000-06:00,2020-03-03 20:00
1583287207213.0,3.1945297999999998,-9.004228999999999,-1.5065415,2020-03-03 20:00:07.213000-06:00,2020-03-03 20:00
1583287207263.0,3.2313544999999997,-8.982128,-1.5078354999999999,2020-03-03 20:00:07.263000-06:00,2020-03-03 20:00
1583287207312.0,3.1647985,-8.90184,-1.4143296,2020-03-03 20:00:07.312000-06:00,2020-03-03 20:00
1583287207362.0,3.0986133,-8.965953,-1.6464925,2020-03-03 20:00:07.362000-06:00,2020-03-03 20:00
1583287207413.0,3.1418117999999997,-8.965558999999999,-1.4887371,2020-03-03 20:00:07.413000-06:00,2020-03-03 20:00
1583287207462.0,3.1938044999999997,-9.023896,-1.3921874,2020-03-03 20:00:07.462000-06:00,2020-03-03 20:00
1583287207512.0,3.100853,-8.950019000000001,-1.3384196000000002,2020-03-03 20:00:07.512000-06:00,2020-03-03 20:00
1583287207563.0,3.0172987,-9.010372,-1.2948818000000002,2020-03-03 20:00:07.563000-06:00,2020-03-03 20:00
1583287207612.0,3.1133897,-8.871255999999999,-1.1119119,2020-03-03 20:00:07.612000-06:00,2020-03-03 20:00
1583287207662.0,3.2211452,-8.965553,-1.261863,2020-03-03 20:00:07.662000-06:00,2020-03-03 20:00
1583287207713.0,3.204129,-8.807569500000001,-0.9143554,2020-03-03 20:00:07.713000-06:00,2020-03-03 20:00
1583287207762.0,3.16748,-8.951635000000001,-1.039292,2020-03-03 20:00:07.762000-06:00,2020-03-03 20:00
1583287207812.0,3.16748,-9.015214,-1.254209,2020-03-03 20:00:07.812000-06:00,2020-03-03 20:00
1583287207862.0,3.077297,-8.987428,-1.12426,2020-03-03 20:00:07.862000-06:00,2020-03-03 20:00
1583287207913.0,2.87922,-9.129442,-1.0557204,2020-03-03 20:00:07.913000-06:00,2020-03-03 20:00
1583287207963.0,2.8006482000000004,-9.041394,-1.2385392,2020-03-03 20:00:07.963000-06:00,2020-03-03 20:00
1583287208012.0,2.943391,-8.98991,-1.1278857,2020-03-03 20:00:08.012000-06:00,2020-03-03 20:00
1583287208062.0,2.8898587000000004,-9.093134,-1.0145609,2020-03-03 20:00:08.062000-06:00,2020-03-03 20:00
1583287208112.0,2.7439603999999997,-9.095124,-1.3238313999999998,2020-03-03 20:00:08.112000-06:00,2020-03-03 20:00
1583287208162.0,2.918766,-8.977732000000001,-0.5606459,2020-03-03 20:00:08.162000-06:00,2020-03-03 20:00
1583287208213.0,2.9495058,-9.236498,-1.1028016,2020-03-03 20:00:08.213000-06:00,2020-03-03 20:00
1583287208262.0,2.8060162,-8.97979,-0.48551708,2020-03-03 20:00:08.262000-06:00,2020-03-03 20:00
1583287208312.0,2.8951588,-8.954654,-0.31635112,2020-03-03 20:00:08.312000-06:00,2020-03-03 20:00
1583287208363.0,2.86053,-9.051246,-1.0100552999999999,2020-03-03 20:00:08.363000-06:00,2020-03-03 20:00
1583287208413.0,2.6992493,-9.079592,-0.69329715,2020-03-03 20:00:08.413000-06:00,2020-03-03 20:00
1583287208462.0,2.620748,-9.138192,-0.96737134,2020-03-03 20:00:08.462000-06:00,2020-03-03 20:00
1583287208512.0,2.5512989,-9.12562,-1.9294435,2020-03-03 20:00:08.512000-06:00,2020-03-03 20:00
1583287208562.0,2.6402292000000003,-9.022008,-1.7501411,2020-03-03 20:00:08.562000-06:00,2020-03-03 20:00
1583287208612.0,2.569325,-8.962438,-1.7892439999999998,2020-03-03 20:00:08.612000-06:00,2020-03-03 20:00
1583287208663.0,2.5690202999999996,-8.997208,-1.8340288,2020-03-03 20:00:08.663000-06:00,2020-03-03 20:00
1583287208712.0,2.5496492,-9.011217,-2.2278576,2020-03-03 20:00:08.712000-06:00,2020-03-03 20:00
1583287208763.0,2.5997756,-8.959934,-2.071678,2020-03-03 20:00:08.763000-06:00,2020-03-03 20:00
1583287208812.0,2.565905,-8.851319,-2.002329,2020-03-03 20:00:08.812000-06:00,2020-03-03 20:00
1583287208862.0,2.5681708,-8.923283,-2.339789,2020-03-03 20:00:08.862000-06:00,2020-03-03 20:00
1583287208913.0,2.6165087000000002,-8.787759,-2.1200454,2020-03-03 20:00:08.913000-06:00,2020-03-03 20:00
1583287208963.0,2.5394759999999996,-8.782511999999999,-2.132664,2020-03-03 20:00:08.963000-06:00,2020-03-03 20:00
1583287209013.0,2.5346966,-8.911082,-2.5682287,2020-03-03 20:00:09.013000-06:00,2020-03-03 20:00
1583287209062.0,2.5451236,-8.771186,-2.3961544,2020-03-03 20:00:09.062000-06:00,2020-03-03 20:00
1583287209112.0,2.5093132999999996,-8.809395,-2.5192528,2020-03-03 20:00:09.112000-06:00,2020-03-03 20:00
1583287209163.0,2.5586164,-8.871199,-2.71358,2020-03-03 20:00:09.163000-06:00,2020-03-03 20:00
1583287209213.0,2.463923,-8.551857,-3.0556169,2020-03-03 20:00:09.213000-06:00,2020-03-03 20:00
1583287209262.0,2.5088046000000004,-8.796549,-3.3872561,2020-03-03 20:00:09.262000-06:00,2020-03-03 20:00
1583287209313.0,2.4549117000000003,-8.626469,-3.4784852999999996,2020-03-03 20:00:09.313000-06:00,2020-03-03 20:00
1583287209363.0,2.5035844,-8.545492999999999,-3.2250395,2020-03-03 20:00:09.363000-06:00,2020-03-03 20:00
1583287209412.0,2.5323662999999996,-8.6778345,-3.3193273999999997,2020-03-03 20:00:09.412000-06:00,2020-03-03 20:00
1583287209462.0,2.4806795,-8.559092999999999,-3.7055445,2020-03-03 20:00:09.462000-06:00,2020-03-03 20:00
1583287209513.0,2.5116593999999997,-8.534039,-3.3667483,2020-03-03 20:00:09.513000-06:00,2020-03-03 20:00
1583287209563.0,2.6226122000000003,-8.449677000000001,-3.2750304,2020-03-03 20:00:09.563000-06:00,2020-03-03 20:00
1583287209613.0,2.6196215,-8.549924,-3.3378989999999997,2020-03-03 20:00:09.613000-06:00,2020-03-03 20:00
1583287209663.0,2.6188865000000003,-8.651346,-3.2578547,2020-03-03 20:00:09.663000-06:00,2020-03-03 20:00
1583287209713.0,2.434346,-8.621569000000001,-2.9281662,2020-03-03 20:00:09.713000-06:00,2020-03-03 20:00
1583287209763.0,2.3711667000000003,-8.522689999999999,-2.941488,2020-03-03 20:00:09.763000-06:00,2020-03-03 20:00
1583287209813.0,2.348704,-8.748395,-3.4647843999999997,2020-03-03 20:00:09.813000-06:00,2020-03-03 20:00
1583287209862.0,2.3322966,-8.609814,-3.0744827,2020-03-03 20:00:09.862000-06:00,2020-03-03 20:00
1583287209913.0,2.2405307,-8.318269,-3.1833400000000003,2020-03-03 20:00:09.913000-06:00,2020-03-03 20:00
1583287209962.0,2.2451722999999997,-8.377033,-4.935551,2020-03-03 20:00:09.962000-06:00,2020-03-03 20:00
1583287210013.0,2.3467171000000002,-8.122425,-4.6747856,2020-03-03 20:00:10.013000-06:00,2020-03-03 20:00
1583287210062.0,2.4677796,-8.176003999999999,-4.1513042,2020-03-03 20:00:10.062000-06:00,2020-03-03 20:00
1583287210112.0,2.4515426,-8.204376,-4.168584,2020-03-03 20:00:10.112000-06:00,2020-03-03 20:00
1583287210162.0,2.4004202,-8.172956,-4.288843,2020-03-03 20:00:10.162000-06:00,2020-03-03 20:00
1583287210212.0,2.4274058,-8.228927,-4.166268,2020-03-03 20:00:10.212000-06:00,2020-03-03 20:00
1583287210262.0,2.4855595,-8.240326,-3.985811,2020-03-03 20:00:10.262000-06:00,2020-03-03 20:00
1583287210312.0,2.4632853999999997,-8.251323,-4.161753,2020-03-03 20:00:10.312000-06:00,2020-03-03 20:00
1583287210363.0,2.4585044,-8.248289999999999,-4.071925,2020-03-03 20:00:10.363000-06:00,2020-03-03 20:00
1583287210412.0,2.4527905,-8.321145,-4.027991,2020-03-03 20:00:10.412000-06:00,2020-03-03 20:00
1583287210463.0,2.477958,-8.265885,-3.9696023,2020-03-03 20:00:10.463000-06:00,2020-03-03 20:00
1583287210513.0,2.5010494999999997,-8.322252,-3.9515492999999995,2020-03-03 20:00:10.513000-06:00,2020-03-03 20:00
1583287210563.0,2.5141459999999998,-8.311277,-3.7756174,2020-03-03 20:00:10.563000-06:00,2020-03-03 20:00
1583287210612.0,2.5477395,-8.34473,-3.7611171999999997,2020-03-03 20:00:10.612000-06:00,2020-03-03 20:00
1583287210663.0,2.57001,-8.380806,-3.8204404999999997,2020-03-03 20:00:10.663000-06:00,2020-03-03 20:00
1583287210713.0,2.5581248,-8.357191,-3.7348095999999997,2020-03-03 20:00:10.713000-06:00,2020-03-03 20:00
1583287210763.0,2.5664053,-8.420978999999999,-3.7610364,2020-03-03 20:00:10.763000-06:00,2020-03-03 20:00
1583287210813.0,2.5827372000000004,-8.372558,-3.7239157999999994,2020-03-03 20:00:10.813000-06:00,2020-03-03 20:00
1583287210863.0,2.589913,-8.375677,-3.6669089999999995,2020-03-03 20:00:10.863000-06:00,2020-03-03 20:00
1583287210912.0,2.580732,-8.414268,-3.7070352999999994,2020-03-03 20:00:10.912000-06:00,2020-03-03 20:00
1583287210963.0,2.549373,-8.367759,-3.5836697,2020-03-03 20:00:10.963000-06:00,2020-03-03 20:00
1583287211013.0,2.55918,-8.492806,-3.5901589999999994,2020-03-03 20:00:11.013000-06:00,2020-03-03 20:00
1583287211062.0,2.6114678,-8.434884,-3.5646036,2020-03-03 20:00:11.062000-06:00,2020-03-03 20:00
1583287211112.0,2.6386583,-8.44158,-3.4993005,2020-03-03 20:00:11.112000-06:00,2020-03-03 20:00
1583287211162.0,2.6194990000000002,-8.481386,-3.5712712,2020-03-03 20:00:11.162000-06:00,2020-03-03 20:00
1583287211213.0,2.593178,-8.464663,-3.5104485,2020-03-03 20:00:11.213000-06:00,2020-03-03 20:00
1583287211262.0,2.628508,-8.490673,-3.369453,2020-03-03 20:00:11.262000-06:00,2020-03-03 20:00
1583287211312.0,2.6940357999999995,-8.563056,-3.3944037000000002,2020-03-03 20:00:11.312000-06:00,2020-03-03 20:00
1583287211363.0,2.6473424,-8.524013,-3.443118,2020-03-03 20:00:11.363000-06:00,2020-03-03 20:00
1583287211412.0,2.7489779999999997,-8.54699,-2.9412992,2020-03-03 20:00:11.412000-06:00,2020-03-03 20:00
1583287211462.0,2.795343,-8.590311,-2.9622927000000003,2020-03-03 20:00:11.462000-06:00,2020-03-03 20:00
1583287211512.0,2.7628752999999997,-8.607717,-3.0519060000000002,2020-03-03 20:00:11.512000-06:00,2020-03-03 20:00
1583287211563.0,2.7665105,-8.664202000000001,-2.9653585,2020-03-03 20:00:11.563000-06:00,2020-03-03 20:00
1583287211613.0,2.7276905,-8.599319,-2.9963286,2020-03-03 20:00:11.613000-06:00,2020-03-03 20:00
1583287211662.0,2.7487936,-8.651232,-3.021255,2020-03-03 20:00:11.662000-06:00,2020-03-03 20:00
1583287211712.0,2.6997743,-8.597980499999998,-2.918078,2020-03-03 20:00:11.712000-06:00,2020-03-03 20:00
1583287211762.0,2.7498736,-8.691147,-2.6285179,2020-03-03 20:00:11.762000-06:00,2020-03-03 20:00
1583287211812.0,2.7665153,-8.703921000000001,-2.8931487000000002,2020-03-03 20:00:11.812000-06:00,2020-03-03 20:00
1583287211863.0,2.7342447999999995,-8.626653999999998,-2.9113545,2020-03-03 20:00:11.863000-06:00,2020-03-03 20:00
1583287211912.0,2.7386637,-8.67966,-2.826556,2020-03-03 20:00:11.912000-06:00,2020-03-03 20:00
1583287211962.0,2.7184381,-8.637176,-2.8166627999999996,2020-03-03 20:00:11.962000-06:00,2020-03-03 20:00
1583287212012.0,2.6947265,-8.709062,-2.917634,2020-03-03 20:00:12.012000-06:00,2020-03-03 20:00
1583287212063.0,2.6948847999999996,-8.653034,-2.897482,2020-03-03 20:00:12.063000-06:00,2020-03-03 20:00
1583287212113.0,2.7052617000000003,-8.693796,-2.8757517000000004,2020-03-03 20:00:12.113000-06:00,2020-03-03 20:00
1583287212163.0,2.7187547999999997,-8.652478,-2.8542919999999996,2020-03-03 20:00:12.163000-06:00,2020-03-03 20:00
1583287212213.0,2.717126,-8.659752000000001,-2.9098597,2020-03-03 20:00:12.213000-06:00,2020-03-03 20:00
1583287212262.0,2.7128804,-8.68217,-2.8531406,2020-03-03 20:00:12.262000-06:00,2020-03-03 20:00
1583287212312.0,2.7208946,-8.691848,-2.870188,2020-03-03 20:00:12.312000-06:00,2020-03-03 20:00
1583287212362.0,2.7198794,-8.652232000000001,-2.9268584,2020-03-03 20:00:12.362000-06:00,2020-03-03 20:00
1583287212413.0,2.7132661,-8.713669,-2.7456956000000003,2020-03-03 20:00:12.413000-06:00,2020-03-03 20:00
1583287212462.0,2.6867292000000003,-8.694517,-2.7368328999999996,2020-03-03 20:00:12.462000-06:00,2020-03-03 20:00
1583287212512.0,2.689276,-8.715485000000001,-2.8372436000000003,2020-03-03 20:00:12.512000-06:00,2020-03-03 20:00
1583287212563.0,2.7072884999999998,-8.687517,-2.7776357999999997,2020-03-03 20:00:12.563000-06:00,2020-03-03 20:00
1583287212612.0,2.732668,-8.725545,-2.7412763,2020-03-03 20:00:12.612000-06:00,2020-03-03 20:00
1583287212662.0,2.7626405,-8.694301,-2.720218,2020-03-03 20:00:12.662000-06:00,2020-03-03 20:00
1583287212712.0,2.7458868,-8.732192,-2.676875,2020-03-03 20:00:12.712000-06:00,2020-03-03 20:00
1583287212763.0,2.7290194,-8.705314999999999,-2.6907362999999997,2020-03-03 20:00:12.763000-06:00,2020-03-03 20:00
1583287212813.0,2.7225645,-8.731586,-2.6312602000000003,2020-03-03 20:00:12.813000-06:00,2020-03-03 20:00
1583287212862.0,2.7084248,-8.749345,-2.647881,2020-03-03 20:00:12.862000-06:00,2020-03-03 20:00
1583287212912.0,2.741423,-8.796776,-2.8028922,2020-03-03 20:00:12.912000-06:00,2020-03-03 20:00
1583287212963.0,2.743274,-8.964671000000001,-2.5887043,2020-03-03 20:00:12.963000-06:00,2020-03-03 20:00
1583287213012.0,2.698975,-8.949007,-2.0090630000000003,2020-03-03 20:00:13.012000-06:00,2020-03-03 20:00
1583287213063.0,2.7096694,-9.13793,-1.3619569999999999,2020-03-03 20:00:13.063000-06:00,2020-03-03 20:00
1583287213112.0,2.6706786,-9.064895,-0.6060105,2020-03-03 20:00:13.112000-06:00,2020-03-03 20:00
1583287213163.0,2.7233598,-9.198874,0.12646654,2020-03-03 20:00:13.163000-06:00,2020-03-03 20:00
1583287213213.0,2.683122,-9.037158999999999,0.7534231,2020-03-03 20:00:13.213000-06:00,2020-03-03 20:00
1583287213263.0,2.7341936000000002,-9.003341,1.277903,2020-03-03 20:00:13.263000-06:00,2020-03-03 20:00
1583287213312.0,2.7065156000000004,-9.167187,1.1464367,2020-03-03 20:00:13.312000-06:00,2020-03-03 20:00
1583287213363.0,2.727319,-9.02172,1.3112273,2020-03-03 20:00:13.363000-06:00,2020-03-03 20:00
1583287213413.0,2.7945611,-9.121027999999999,1.2797996999999999,2020-03-03 20:00:13.413000-06:00,2020-03-03 20:00
1583287213463.0,2.851407,-9.034969,1.2889629999999999,2020-03-03 20:00:13.463000-06:00,2020-03-03 20:00
1583287213512.0,2.8390033,-9.049754,1.3704276000000002,2020-03-03 20:00:13.512000-06:00,2020-03-03 20:00
1583287213562.0,2.8122563,-9.10101,1.2868203999999999,2020-03-03 20:00:13.562000-06:00,2020-03-03 20:00
1583287213612.0,2.7917377999999995,-9.140568,1.0900733,2020-03-03 20:00:13.612000-06:00,2020-03-03 20:00
1583287213663.0,2.823467,-9.225265499999999,1.0765109,2020-03-03 20:00:13.663000-06:00,2020-03-03 20:00
1583287213713.0,2.751577,-9.134262,1.4073601,2020-03-03 20:00:13.713000-06:00,2020-03-03 20:00
1583287213762.0,2.7132185,-8.95555,1.7751101000000002,2020-03-03 20:00:13.762000-06:00,2020-03-03 20:00
1583287213812.0,2.7465947,-8.897721,2.1493177000000006,2020-03-03 20:00:13.812000-06:00,2020-03-03 20:00
1583287213862.0,2.7980207999999998,-8.971494,2.0053217,2020-03-03 20:00:13.862000-06:00,2020-03-03 20:00
1583287213912.0,2.8460672000000002,-8.872511,2.2749715,2020-03-03 20:00:13.912000-06:00,2020-03-03 20:00
1583287213963.0,2.8629062000000003,-9.008424,2.232181,2020-03-03 20:00:13.963000-06:00,2020-03-03 20:00
1583287214012.0,2.8249495,-8.918541000000001,2.1833277,2020-03-03 20:00:14.012000-06:00,2020-03-03 20:00
1583287214063.0,2.8693516,-8.784811999999999,2.5179343,2020-03-03 20:00:14.063000-06:00,2020-03-03 20:00
1583287214112.0,2.8481542999999996,-8.867472,2.33272,2020-03-03 20:00:14.112000-06:00,2020-03-03 20:00
1583287214162.0,2.7863569999999998,-8.88531,2.3816655,2020-03-03 20:00:14.162000-06:00,2020-03-03 20:00
1583287214213.0,2.7784963,-8.912571,2.2935429,2020-03-03 20:00:14.213000-06:00,2020-03-03 20:00
1583287214262.0,2.8658664000000003,-9.024028,2.04347,2020-03-03 20:00:14.262000-06:00,2020-03-03 20:00
1583287214313.0,2.823632,-8.886991,2.172549,2020-03-03 20:00:14.313000-06:00,2020-03-03 20:00
1583287214363.0,2.843715,-8.992957,2.1172438,2020-03-03 20:00:14.363000-06:00,2020-03-03 20:00
1583287214413.0,2.7712817000000003,-8.90859,2.1454902000000002,2020-03-03 20:00:14.413000-06:00,2020-03-03 20:00
1583287214463.0,2.762282,-8.970080000000001,2.079792,2020-03-03 20:00:14.463000-06:00,2020-03-03 20:00
1583287214512.0,2.7547848,-8.9836235,2.1534662,2020-03-03 20:00:14.512000-06:00,2020-03-03 20:00
1583287214563.0,2.7541535,-8.959547,1.9972941000000002,2020-03-03 20:00:14.563000-06:00,2020-03-03 20:00
1583287214612.0,2.7874355,-9.012651,2.0357602,2020-03-03 20:00:14.612000-06:00,2020-03-03 20:00
1583287214662.0,2.7687263,-8.988476,2.0354807,2020-03-03 20:00:14.662000-06:00,2020-03-03 20:00
1583287214712.0,2.74516,-8.937686,2.0845373,2020-03-03 20:00:14.712000-06:00,2020-03-03 20:00
1583287214763.0,2.7402616,-9.019442999999999,1.9319244999999998,2020-03-03 20:00:14.763000-06:00,2020-03-03 20:00
1583287214812.0,2.7224479,-8.9767,1.9748491999999997,2020-03-03 20:00:14.812000-06:00,2020-03-03 20:00
1583287214863.0,2.7191202999999997,-9.063838,1.8923638999999999,2020-03-03 20:00:14.863000-06:00,2020-03-03 20:00
1583287214912.0,2.7479612999999996,-8.975196,1.8480034,2020-03-03 20:00:14.912000-06:00,2020-03-03 20:00
1583287214963.0,2.7336454,-8.997019,1.7853893,2020-03-03 20:00:14.963000-06:00,2020-03-03 20:00
1583287215012.0,2.6759665,-9.182553,1.8354338,2020-03-03 20:00:15.012000-06:00,2020-03-03 20:00
1583287215063.0,2.7044737000000003,-8.911141,1.9685488000000002,2020-03-03 20:00:15.063000-06:00,2020-03-03 20:00
1583287215113.0,2.712335,-9.029527999999999,1.8900301,2020-03-03 20:00:15.113000-06:00,2020-03-03 20:00
1583287215163.0,2.6234387999999997,-9.061353,1.8952106,2020-03-03 20:00:15.163000-06:00,2020-03-03 20:00
1583287215213.0,2.5685484,-9.031296000000001,1.9232919999999998,2020-03-03 20:00:15.213000-06:00,2020-03-03 20:00
1583287215262.0,2.5711286,-9.048076,1.8419869999999998,2020-03-03 20:00:15.262000-06:00,2020-03-03 20:00
1583287215312.0,2.5707667,-9.089393,1.6999885,2020-03-03 20:00:15.312000-06:00,2020-03-03 20:00
1583287215362.0,2.5544515,-9.047525,1.7046383999999999,2020-03-03 20:00:15.362000-06:00,2020-03-03 20:00
1583287215412.0,2.5852814,-9.2837715,1.1818403999999998,2020-03-03 20:00:15.412000-06:00,2020-03-03 20:00
1583287215463.0,2.6188588,-8.882738,2.3680086,2020-03-03 20:00:15.463000-06:00,2020-03-03 20:00
1583287215512.0,2.698357,-8.781116,2.6798275,2020-03-03 20:00:15.512000-06:00,2020-03-03 20:00
1583287215562.0,2.8306305,-8.904392999999999,2.0804613,2020-03-03 20:00:15.562000-06:00,2020-03-03 20:00
1583287215612.0,2.8462799,-9.073400999999999,1.7874429,2020-03-03 20:00:15.612000-06:00,2020-03-03 20:00
1583287215662.0,2.755082,-9.063167,2.0724213,2020-03-03 20:00:15.662000-06:00,2020-03-03 20:00
1583287215712.0,2.6600034,-8.979768,1.9421164,2020-03-03 20:00:15.712000-06:00,2020-03-03 20:00
1583287215762.0,2.6835306,-9.065541,1.7005561999999999,2020-03-03 20:00:15.762000-06:00,2020-03-03 20:00
1583287215813.0,2.7250178,-9.01976,1.8036411,2020-03-03 20:00:15.813000-06:00,2020-03-03 20:00
1583287215863.0,2.7472124,-9.085078999999999,1.6779946,2020-03-03 20:00:15.863000-06:00,2020-03-03 20:00
1583287215913.0,2.7356462,-9.024758,2.0134976000000004,2020-03-03 20:00:15.913000-06:00,2020-03-03 20:00
1583287215963.0,2.6870356,-8.987188,1.7892705000000002,2020-03-03 20:00:15.963000-06:00,2020-03-03 20:00
1583287216013.0,2.7044158,-9.105685000000001,1.7357806,2020-03-03 20:00:16.013000-06:00,2020-03-03 20:00
1583287216063.0,2.747198,-8.946436,2.0000243,2020-03-03 20:00:16.063000-06:00,2020-03-03 20:00
1583287216113.0,2.730355,-9.022449,1.8220587,2020-03-03 20:00:16.113000-06:00,2020-03-03 20:00
1583287216162.0,2.7147148,-9.041833,1.8000851999999998,2020-03-03 20:00:16.162000-06:00,2020-03-03 20:00
1583287216213.0,2.694252,-9.046114999999999,1.7965756999999998,2020-03-03 20:00:16.213000-06:00,2020-03-03 20:00
1583287216262.0,2.6845849999999998,-9.085544,1.8114290000000002,2020-03-03 20:00:16.262000-06:00,2020-03-03 20:00
1583287216313.0,2.6998,-9.016962,1.9046159,2020-03-03 20:00:16.313000-06:00,2020-03-03 20:00
1583287216363.0,2.69129,-9.009644999999999,1.8308901999999998,2020-03-03 20:00:16.363000-06:00,2020-03-03 20:00
1583287216412.0,2.7010243,-9.056503,1.8838203999999998,2020-03-03 20:00:16.412000-06:00,2020-03-03 20:00
1583287216463.0,2.6909172999999997,-9.039923,1.9020130000000002,2020-03-03 20:00:16.463000-06:00,2020-03-03 20:00
1583287216512.0,2.7022827,-8.997902999999999,1.928721,2020-03-03 20:00:16.512000-06:00,2020-03-03 20:00
1583287216562.0,2.8400357000000005,-9.279154,2.9074828999999998,2020-03-03 20:00:16.562000-06:00,2020-03-03 20:00
1583287216612.0,3.4979675,-9.250906,4.862226000000001,2020-03-03 20:00:16.612000-06:00,2020-03-03 20:00
1583287216662.0,3.8853678999999994,-9.450942999999999,2.6643329,2020-03-03 20:00:16.662000-06:00,2020-03-03 20:00
1583287216712.0,2.8600712,-8.8811245,4.565673,2020-03-03 20:00:16.712000-06:00,2020-03-03 20:00
1583287216763.0,4.037028,-6.4712615,3.3258162000000002,2020-03-03 20:00:16.763000-06:00,2020-03-03 20:00
1583287216813.0,4.8017178,-7.4008193,0.17171395,2020-03-03 20:00:16.813000-06:00,2020-03-03 20:00
1583287216862.0,7.563165700000001,-7.805744,-1.4736702,2020-03-03 20:00:16.862000-06:00,2020-03-03 20:00
1583287216913.0,8.109941000000001,-6.7494845,-2.434356,2020-03-03 20:00:16.913000-06:00,2020-03-03 20:00
1583287216963.0,8.866291,-9.141313,-1.5615642,2020-03-03 20:00:16.963000-06:00,2020-03-03 20:00
1583287217013.0,11.195530999999999,-12.327939,-2.1516208999999997,2020-03-03 20:00:17.013000-06:00,2020-03-03 20:00
1583287217062.0,12.135635,-11.718441,-4.3254366,2020-03-03 20:00:17.062000-06:00,2020-03-03 20:00
1583287217112.0,11.303092,-10.614059,-7.2273297,2020-03-03 20:00:17.112000-06:00,2020-03-03 20:00
1583287217162.0,7.857409,-10.160982,-13.351935000000001,2020-03-03 20:00:17.162000-06:00,2020-03-03 20:00
1583287217213.0,5.5834637,-12.083383999999999,-19.27382,2020-03-03 20:00:17.213000-06:00,2020-03-03 20:00
1583287217262.0,8.358761999999999,-11.506492,-20.864573,2020-03-03 20:00:17.262000-06:00,2020-03-03 20:00
1583287217313.0,13.632048999999999,-11.174283,-16.694166,2020-03-03 20:00:17.313000-06:00,2020-03-03 20:00
1583287217363.0,19.746399,-9.201803,-11.619799,2020-03-03 20:00:17.363000-06:00,2020-03-03 20:00
1583287217412.0,20.098876999999998,-7.0012493000000005,-5.036935,2020-03-03 20:00:17.412000-06:00,2020-03-03 20:00
1583287217463.0,17.63928,-4.420575599999999,1.7977915,2020-03-03 20:00:17.463000-06:00,2020-03-03 20:00
1583287217513.0,13.453484,-2.275407,7.5460587,2020-03-03 20:00:17.513000-06:00,2020-03-03 20:00
1583287217562.0,8.041013000000001,-1.182548,14.916067000000002,2020-03-03 20:00:17.562000-06:00,2020-03-03 20:00
1583287217613.0,5.8252883,-0.8065966,22.978601,2020-03-03 20:00:17.613000-06:00,2020-03-03 20:00
1583287217662.0,3.5349793,-0.6045623999999999,27.952505,2020-03-03 20:00:17.662000-06:00,2020-03-03 20:00
1583287217712.0,3.5370769999999996,-1.5604722,22.89302,2020-03-03 20:00:17.712000-06:00,2020-03-03 20:00
1583287217762.0,7.0205592999999995,-3.430449,13.900502,2020-03-03 20:00:17.762000-06:00,2020-03-03 20:00
1583287217813.0,11.49287,-5.537463,6.7556405,2020-03-03 20:00:17.813000-06:00,2020-03-03 20:00
1583287217862.0,16.969929,-7.6780944,0.76279616,2020-03-03 20:00:17.862000-06:00,2020-03-03 20:00
1583287217913.0,19.82688,-9.978697,-6.374534,2020-03-03 20:00:17.913000-06:00,2020-03-03 20:00
1583287217962.0,16.205477,-12.860516,-14.363864000000001,2020-03-03 20:00:17.962000-06:00,2020-03-03 20:00
1583287218012.0,7.9467669999999995,-15.244682000000001,-20.699755,2020-03-03 20:00:18.012000-06:00,2020-03-03 20:00
1583287218063.0,0.9553795,-19.72077,-22.82871,2020-03-03 20:00:18.063000-06:00,2020-03-03 20:00
1583287218112.0,2.6968281000000003,-21.083467000000002,-20.34691,2020-03-03 20:00:18.112000-06:00,2020-03-03 20:00
1583287218163.0,8.596250999999999,-18.068657,-13.441482999999998,2020-03-03 20:00:18.163000-06:00,2020-03-03 20:00
1583287218213.0,13.573748000000002,-13.456882,-8.665576,2020-03-03 20:00:18.213000-06:00,2020-03-03 20:00
1583287218262.0,16.560389,-8.929577,-4.287289599999999,2020-03-03 20:00:18.262000-06:00,2020-03-03 20:00
1583287218312.0,16.284233,-6.2348065,0.28970084,2020-03-03 20:00:18.312000-06:00,2020-03-03 20:00
1583287218363.0,14.571128,-5.990961599999999,6.638242999999999,2020-03-03 20:00:18.363000-06:00,2020-03-03 20:00
1583287218412.0,10.621021,-5.923916,13.270527,2020-03-03 20:00:18.412000-06:00,2020-03-03 20:00
1583287218463.0,7.7494190000000005,-6.063532,19.926281,2020-03-03 20:00:18.463000-06:00,2020-03-03 20:00
1583287218512.0,4.1552463,-5.9109764,22.73796,2020-03-03 20:00:18.512000-06:00,2020-03-03 20:00
1583287218562.0,1.9039261000000003,-4.741319,20.892466,2020-03-03 20:00:18.562000-06:00,2020-03-03 20:00
1583287218612.0,3.1045907,-3.5077074,14.511139000000002,2020-03-03 20:00:18.612000-06:00,2020-03-03 20:00
1583287218663.0,5.368307,-5.076552400000001,8.264833,2020-03-03 20:00:18.663000-06:00,2020-03-03 20:00
1583287218713.0,8.1536045,-7.060927,3.543835,2020-03-03 20:00:18.713000-06:00,2020-03-03 20:00
1583287218762.0,9.672044,-9.318806,-1.6104935,2020-03-03 20:00:18.762000-06:00,2020-03-03 20:00
1583287218812.0,9.009153999999999,-12.786945,-8.233406,2020-03-03 20:00:18.812000-06:00,2020-03-03 20:00
1583287218862.0,5.4565306,-16.455866,-16.244905,2020-03-03 20:00:18.862000-06:00,2020-03-03 20:00
1583287218912.0,0.9084779000000001,-20.647442,-20.503431,2020-03-03 20:00:18.912000-06:00,2020-03-03 20:00
1583287218962.0,1.598351,-17.992167000000002,-15.655079999999998,2020-03-03 20:00:18.962000-06:00,2020-03-03 20:00
1583287219012.0,4.3115587,-14.114359,-10.619013,2020-03-03 20:00:19.012000-06:00,2020-03-03 20:00
1583287219062.0,5.9861903,-10.782314999999999,-5.5126123,2020-03-03 20:00:19.062000-06:00,2020-03-03 20:00
1583287219113.0,7.336175,-9.021861999999999,-1.6796906000000003,2020-03-03 20:00:19.113000-06:00,2020-03-03 20:00
1583287219162.0,8.148022000000001,-7.241125,2.9549246,2020-03-03 20:00:19.162000-06:00,2020-03-03 20:00
1583287219213.0,8.447305,-5.8941402,7.3359995,2020-03-03 20:00:19.213000-06:00,2020-03-03 20:00
1583287219263.0,8.12208,-6.215923,11.746958,2020-03-03 20:00:19.263000-06:00,2020-03-03 20:00
1583287219312.0,6.2473598,-6.9586440000000005,16.450336,2020-03-03 20:00:19.312000-06:00,2020-03-03 20:00
1583287219363.0,4.4863844,-6.5179715,21.076220000000003,2020-03-03 20:00:19.363000-06:00,2020-03-03 20:00
1583287219412.0,2.9358873,-7.4709163,17.028835,2020-03-03 20:00:19.412000-06:00,2020-03-03 20:00
1583287219462.0,3.8615675000000005,-6.0935334999999995,12.564784,2020-03-03 20:00:19.462000-06:00,2020-03-03 20:00
1583287219512.0,3.8667593,-5.2545743,9.336466,2020-03-03 20:00:19.512000-06:00,2020-03-03 20:00
1583287219563.0,4.9173613,-5.099867,6.171965,2020-03-03 20:00:19.563000-06:00,2020-03-03 20:00
1583287219613.0,6.1518793,-5.3959410000000005,3.121169,2020-03-03 20:00:19.613000-06:00,2020-03-03 20:00
1583287219662.0,7.883932000000001,-5.9206285,0.6386615,2020-03-03 20:00:19.662000-06:00,2020-03-03 20:00
1583287219712.0,9.747441,-6.5472093000000005,-2.485757,2020-03-03 20:00:19.712000-06:00,2020-03-03 20:00
1583287219762.0,10.064604,-7.2728186,-5.722817,2020-03-03 20:00:19.762000-06:00,2020-03-03 20:00
1583287219813.0,9.004877,-7.8100724,-8.352266,2020-03-03 20:00:19.813000-06:00,2020-03-03 20:00
1583287219863.0,7.16165,-9.1777,-9.52692,2020-03-03 20:00:19.863000-06:00,2020-03-03 20:00
1583287219913.0,6.717314,-9.595118,-8.8407955,2020-03-03 20:00:19.913000-06:00,2020-03-03 20:00
1583287219963.0,6.788182000000001,-10.505962,-6.5561185,2020-03-03 20:00:19.963000-06:00,2020-03-03 20:00
1583287220013.0,7.979029700000001,-10.267828,-3.4752991,2020-03-03 20:00:20.013000-06:00,2020-03-03 20:00
1583287220063.0,9.346627999999999,-8.909895,-1.5086721,2020-03-03 20:00:20.063000-06:00,2020-03-03 20:00
1583287220112.0,10.888857000000002,-8.327765,0.72358936,2020-03-03 20:00:20.112000-06:00,2020-03-03 20:00
1583287220163.0,10.927332,-9.221623,1.1720457,2020-03-03 20:00:20.163000-06:00,2020-03-03 20:00
1583287220212.0,11.508405,-10.637035000000001,1.5403113000000002,2020-03-03 20:00:20.212000-06:00,2020-03-03 20:00
1583287220263.0,11.564091000000001,-10.7916765,2.8135324,2020-03-03 20:00:20.263000-06:00,2020-03-03 20:00
1583287220312.0,11.574753999999999,-10.087117,2.1790317999999997,2020-03-03 20:00:20.312000-06:00,2020-03-03 20:00
1583287220362.0,10.954544,-9.549563000000001,1.6808011999999999,2020-03-03 20:00:20.362000-06:00,2020-03-03 20:00
1583287220413.0,9.91036,-7.937106,0.9847851999999999,2020-03-03 20:00:20.413000-06:00,2020-03-03 20:00
1583287220462.0,8.965887,-7.6260185,0.9945166999999999,2020-03-03 20:00:20.462000-06:00,2020-03-03 20:00
1583287220513.0,8.340603,-1.5612559,2.5142187999999996,2020-03-03 20:00:20.513000-06:00,2020-03-03 20:00
1583287220562.0,6.706981699999999,-2.4297004,2.2802622,2020-03-03 20:00:20.562000-06:00,2020-03-03 20:00
1583287220612.0,6.547233599999999,-7.565918400000001,0.7222235,2020-03-03 20:00:20.612000-06:00,2020-03-03 20:00
1583287220662.0,5.0213294,-8.249402,-0.62977904,2020-03-03 20:00:20.662000-06:00,2020-03-03 20:00
1583287220713.0,5.50747,-5.964773999999999,1.4587526000000002,2020-03-03 20:00:20.713000-06:00,2020-03-03 20:00
1583287220762.0,5.1756835,-2.9020429,3.6778376000000006,2020-03-03 20:00:20.762000-06:00,2020-03-03 20:00
1583287220813.0,5.1650267,-2.3853880000000003,8.153038,2020-03-03 20:00:20.813000-06:00,2020-03-03 20:00
1583287220863.0,4.418557,-1.8638848999999997,9.206278999999999,2020-03-03 20:00:20.863000-06:00,2020-03-03 20:00
1583287220912.0,4.1766324,-0.75492686,8.789936,2020-03-03 20:00:20.912000-06:00,2020-03-03 20:00
1583287220963.0,4.164554,0.5586116999999999,8.7806835,2020-03-03 20:00:20.963000-06:00,2020-03-03 20:00
1583287221013.0,4.619614599999999,1.6214933,9.983146000000001,2020-03-03 20:00:21.013000-06:00,2020-03-03 20:00
1583287221063.0,5.137003400000001,-0.15366451,9.248155,2020-03-03 20:00:21.063000-06:00,2020-03-03 20:00
1583287221113.0,4.851157,-1.1640201000000001,8.539715,2020-03-03 20:00:21.113000-06:00,2020-03-03 20:00
1583287221163.0,4.639601,-1.0548116,8.975806,2020-03-03 20:00:21.163000-06:00,2020-03-03 20:00
1583287221213.0,4.4975953,-1.032474,8.936050999999999,2020-03-03 20:00:21.213000-06:00,2020-03-03 20:00
1583287221263.0,4.5626964999999995,-1.1160347,8.836255,2020-03-03 20:00:21.263000-06:00,2020-03-03 20:00
1583287221313.0,4.501913500000001,-1.0986704999999999,8.81834,2020-03-03 20:00:21.313000-06:00,2020-03-03 20:00
1583287221362.0,4.530963400000001,-0.9751748,8.901503,2020-03-03 20:00:21.362000-06:00,2020-03-03 20:00
1583287221413.0,4.5804696,-1.0053931,8.7423935,2020-03-03 20:00:21.413000-06:00,2020-03-03 20:00
1583287221462.0,4.645682,-0.88877004,8.767463000000001,2020-03-03 20:00:21.462000-06:00,2020-03-03 20:00
1583287221512.0,4.6706915,-0.77951634,8.861702000000001,2020-03-03 20:00:21.512000-06:00,2020-03-03 20:00
1583287221562.0,4.649095,-0.8150457,8.8125515,2020-03-03 20:00:21.562000-06:00,2020-03-03 20:00
1583287221613.0,4.563976,-0.96420646,8.867458000000001,2020-03-03 20:00:21.613000-06:00,2020-03-03 20:00
1583287221663.0,4.582852,-1.0361038,8.851258,2020-03-03 20:00:21.663000-06:00,2020-03-03 20:00
1583287221712.0,4.579895,-1.0302940999999999,8.819659,2020-03-03 20:00:21.712000-06:00,2020-03-03 20:00
1583287221762.0,4.5895123,-0.9716591,8.818942999999999,2020-03-03 20:00:21.762000-06:00,2020-03-03 20:00
1583287221812.0,4.561661,-0.99951017,8.8239155,2020-03-03 20:00:21.812000-06:00,2020-03-03 20:00
1583287221862.0,4.609187,-0.8647927,8.833239,2020-03-03 20:00:21.862000-06:00,2020-03-03 20:00
1583287221913.0,4.638408,-0.8677956,8.803673,2020-03-03 20:00:21.913000-06:00,2020-03-03 20:00
1583287221963.0,4.655522,-0.73627925,8.839805,2020-03-03 20:00:21.963000-06:00,2020-03-03 20:00
1583287222012.0,4.6190367,-0.74537504,8.812535,2020-03-03 20:00:22.012000-06:00,2020-03-03 20:00
1583287222063.0,4.6643467,-0.6638826999999999,8.884076,2020-03-03 20:00:22.063000-06:00,2020-03-03 20:00
1583287222113.0,4.690233999999999,-0.6920712,8.845742999999999,2020-03-03 20:00:22.113000-06:00,2020-03-03 20:00
1583287222162.0,4.6391,-0.73251045,8.806907,2020-03-03 20:00:22.162000-06:00,2020-03-03 20:00
1583287222212.0,4.6527233,-0.79248583,8.80074,2020-03-03 20:00:22.212000-06:00,2020-03-03 20:00
1583287222262.0,4.6691413,-0.74936473,8.877689,2020-03-03 20:00:22.262000-06:00,2020-03-03 20:00
1583287222312.0,4.600031400000001,-0.80128896,8.831653,2020-03-03 20:00:22.312000-06:00,2020-03-03 20:00
1583287222363.0,4.6641927,-0.7782594,8.804167999999999,2020-03-03 20:00:22.363000-06:00,2020-03-03 20:00
1583287222412.0,4.685055,-0.7597503999999999,8.777650999999999,2020-03-03 20:00:22.412000-06:00,2020-03-03 20:00
1583287222463.0,4.6392045,-0.76137125,8.852386,2020-03-03 20:00:22.463000-06:00,2020-03-03 20:00
1583287222512.0,4.6196446,-0.8493951999999999,8.822521,2020-03-03 20:00:22.512000-06:00,2020-03-03 20:00
1583287222562.0,4.6351085,-0.79611033,8.842114,2020-03-03 20:00:22.562000-06:00,2020-03-03 20:00
1583287222613.0,4.65269,-0.83564734,8.790559,2020-03-03 20:00:22.613000-06:00,2020-03-03 20:00
1583287222662.0,4.678369,-0.7828996,8.829901,2020-03-03 20:00:22.662000-06:00,2020-03-03 20:00
1583287222712.0,4.6695304,-0.7652169,8.803639,2020-03-03 20:00:22.712000-06:00,2020-03-03 20:00
1583287222762.0,4.676233,-0.75761896,8.822851,2020-03-03 20:00:22.762000-06:00,2020-03-03 20:00
1583287222813.0,4.6597,-0.78629714,8.816111,2020-03-03 20:00:22.813000-06:00,2020-03-03 20:00
1583287222863.0,4.659935,-0.80855995,8.821221000000001,2020-03-03 20:00:22.863000-06:00,2020-03-03 20:00
1583287222913.0,4.671854,-0.7848145999999999,8.800155,2020-03-03 20:00:22.913000-06:00,2020-03-03 20:00
1583287222963.0,4.6686335,-0.7919413000000001,8.799014,2020-03-03 20:00:22.963000-06:00,2020-03-03 20:00
1583287223012.0,4.673757599999999,-0.8083471,8.784428,2020-03-03 20:00:23.012000-06:00,2020-03-03 20:00
1583287223063.0,4.6741166,-0.80501246,8.844605,2020-03-03 20:00:23.063000-06:00,2020-03-03 20:00
1583287223113.0,4.641635400000001,-0.7744854,8.832462,2020-03-03 20:00:23.113000-06:00,2020-03-03 20:00
1583287223162.0,4.650112,-0.7846196999999999,8.795301,2020-03-03 20:00:23.162000-06:00,2020-03-03 20:00
1583287223212.0,4.670552,-0.8261849,8.7992,2020-03-03 20:00:23.212000-06:00,2020-03-03 20:00
1583287223262.0,4.652196,-0.79510325,8.820367,2020-03-03 20:00:23.262000-06:00,2020-03-03 20:00
1583287223312.0,4.6598763,-0.8144486999999999,8.813566,2020-03-03 20:00:23.312000-06:00,2020-03-03 20:00
1583287223362.0,4.6700172,-0.797531,8.836638,2020-03-03 20:00:23.362000-06:00,2020-03-03 20:00
1583287223413.0,4.669651,-0.7947371999999999,8.76677,2020-03-03 20:00:23.413000-06:00,2020-03-03 20:00
1583287223463.0,4.656668,-0.81632376,8.839328,2020-03-03 20:00:23.463000-06:00,2020-03-03 20:00
1583287223513.0,4.643739,-0.81158274,8.798604,2020-03-03 20:00:23.513000-06:00,2020-03-03 20:00
1583287223562.0,4.656138400000001,-0.76820546,8.869743,2020-03-03 20:00:23.562000-06:00,2020-03-03 20:00
1583287223613.0,4.6598125,-0.82207966,8.78835,2020-03-03 20:00:23.613000-06:00,2020-03-03 20:00
1583287223663.0,4.6482209999999995,-0.8496948000000001,8.801654,2020-03-03 20:00:23.663000-06:00,2020-03-03 20:00
1583287223712.0,4.657481,-0.8117032,8.810024,2020-03-03 20:00:23.712000-06:00,2020-03-03 20:00
1583287223762.0,4.650448,-0.84657305,8.813505000000001,2020-03-03 20:00:23.762000-06:00,2020-03-03 20:00
1583287223813.0,4.6572485,-0.8527302999999999,8.835595,2020-03-03 20:00:23.813000-06:00,2020-03-03 20:00
1583287223862.0,4.6412629999999995,-0.8462033000000001,8.812767,2020-03-03 20:00:23.862000-06:00,2020-03-03 20:00
1583287223913.0,4.643108,-0.79930145,8.820746,2020-03-03 20:00:23.913000-06:00,2020-03-03 20:00
1583287223963.0,4.6802154,-0.8178563,8.799721,2020-03-03 20:00:23.963000-06:00,2020-03-03 20:00
1583287224012.0,4.6815414,-0.7906895,8.804469000000001,2020-03-03 20:00:24.012000-06:00,2020-03-03 20:00
1583287224063.0,4.638853,-0.8554450000000001,8.82778,2020-03-03 20:00:24.063000-06:00,2020-03-03 20:00
1583287224112.0,4.646705,-0.8431533000000001,8.827313,2020-03-03 20:00:24.112000-06:00,2020-03-03 20:00
1583287224163.0,4.668917700000001,-0.82871276,8.801486,2020-03-03 20:00:24.163000-06:00,2020-03-03 20:00
1583287224213.0,4.66235,-0.8406365,8.802091,2020-03-03 20:00:24.213000-06:00,2020-03-03 20:00
1583287224262.0,4.6710614999999995,-0.84001607,8.796084,2020-03-03 20:00:24.262000-06:00,2020-03-03 20:00
1583287224312.0,4.659997,-0.8235074,8.809723,2020-03-03 20:00:24.312000-06:00,2020-03-03 20:00
1583287224363.0,4.6573267,-0.8572101000000001,8.809553999999999,2020-03-03 20:00:24.363000-06:00,2020-03-03 20:00
1583287224413.0,4.6767807,-0.81776774,8.827606,2020-03-03 20:00:24.413000-06:00,2020-03-03 20:00
1583287224463.0,4.679263,-0.8761315000000001,8.784258,2020-03-03 20:00:24.463000-06:00,2020-03-03 20:00
1583287224512.0,4.6620230000000005,-0.84607846,8.804124,2020-03-03 20:00:24.512000-06:00,2020-03-03 20:00
1583287224562.0,4.6948586,-0.8909101999999999,8.785245,2020-03-03 20:00:24.562000-06:00,2020-03-03 20:00
1583287224613.0,4.636636,-0.92344743,8.844759,2020-03-03 20:00:24.613000-06:00,2020-03-03 20:00
1583287224662.0,4.6677823,-0.8864700000000001,8.808199,2020-03-03 20:00:24.662000-06:00,2020-03-03 20:00
1583287224713.0,4.693413700000001,-0.8551469,8.768635,2020-03-03 20:00:24.713000-06:00,2020-03-03 20:00
1583287224763.0,4.6838984,-0.8468379999999999,8.83243,2020-03-03 20:00:24.763000-06:00,2020-03-03 20:00
1583287224813.0,4.6554923,-0.91320354,8.770684,2020-03-03 20:00:24.813000-06:00,2020-03-03 20:00
1583287224863.0,4.6189303,-0.91600853,8.817492999999999,2020-03-03 20:00:24.863000-06:00,2020-03-03 20:00
1583287224912.0,4.658571,-0.8869466,8.821539999999999,2020-03-03 20:00:24.912000-06:00,2020-03-03 20:00
1583287224962.0,4.6590576,-0.9283911,8.783043,2020-03-03 20:00:24.962000-06:00,2020-03-03 20:00
1583287225013.0,4.6229086,-0.90259534,8.82128,2020-03-03 20:00:25.013000-06:00,2020-03-03 20:00
1583287225063.0,4.6469,-0.87433183,8.819763,2020-03-03 20:00:25.063000-06:00,2020-03-03 20:00
1583287225113.0,4.6455245000000005,-0.8991581,8.798733,2020-03-03 20:00:25.113000-06:00,2020-03-03 20:00
1583287225162.0,4.6225309999999995,-0.91391474,8.807053999999999,2020-03-03 20:00:25.162000-06:00,2020-03-03 20:00
1583287225213.0,4.620808,-0.9451007,8.841346000000001,2020-03-03 20:00:25.213000-06:00,2020-03-03 20:00
1583287225263.0,4.625440599999999,-0.9005595,8.797307,2020-03-03 20:00:25.263000-06:00,2020-03-03 20:00
1583287225313.0,4.63589,-0.9049418,8.837114999999999,2020-03-03 20:00:25.313000-06:00,2020-03-03 20:00
1583287225362.0,4.613907299999999,-0.9309559999999999,8.845944,2020-03-03 20:00:25.362000-06:00,2020-03-03 20:00
1583287225413.0,4.639632700000001,-0.88765293,8.773183,2020-03-03 20:00:25.413000-06:00,2020-03-03 20:00
1583287225462.0,4.639463,-0.8674094999999999,8.825499,2020-03-03 20:00:25.462000-06:00,2020-03-03 20:00
1583287225512.0,4.61723,-0.92105746,8.809367,2020-03-03 20:00:25.512000-06:00,2020-03-03 20:00
1583287225562.0,4.6293607,-0.9289987,8.824843,2020-03-03 20:00:25.562000-06:00,2020-03-03 20:00
1583287225613.0,4.6582413,-0.8598005,8.837012,2020-03-03 20:00:25.613000-06:00,2020-03-03 20:00
1583287225663.0,4.6483254,-0.89162433,8.790322999999999,2020-03-03 20:00:25.663000-06:00,2020-03-03 20:00
1583287225713.0,4.623552,-0.9147084999999999,8.83892,2020-03-03 20:00:25.713000-06:00,2020-03-03 20:00
1583287225762.0,4.6346345,-0.9099273000000001,8.794214,2020-03-03 20:00:25.762000-06:00,2020-03-03 20:00
1583287225813.0,4.651184,-0.8924341,8.819788,2020-03-03 20:00:25.813000-06:00,2020-03-03 20:00
1583287225863.0,4.627498999999999,-0.88716745,8.818955,2020-03-03 20:00:25.863000-06:00,2020-03-03 20:00
1583287225913.0,4.607947,-0.89341795,8.815798,2020-03-03 20:00:25.913000-06:00,2020-03-03 20:00
1583287225962.0,4.616100299999999,-0.85780233,8.807728,2020-03-03 20:00:25.962000-06:00,2020-03-03 20:00
1583287226012.0,4.663075,-0.900524,8.80609,2020-03-03 20:00:26.012000-06:00,2020-03-03 20:00
1583287226062.0,4.627644999999999,-0.90367556,8.844861,2020-03-03 20:00:26.062000-06:00,2020-03-03 20:00
1583287226112.0,4.6213593,-0.9027368,8.789591,2020-03-03 20:00:26.112000-06:00,2020-03-03 20:00
1583287226163.0,4.651388,-0.8733403000000001,8.84185,2020-03-03 20:00:26.163000-06:00,2020-03-03 20:00
1583287226212.0,4.625382,-0.87512654,8.797317999999999,2020-03-03 20:00:26.212000-06:00,2020-03-03 20:00
1583287226263.0,4.628056,-0.88836706,8.824986,2020-03-03 20:00:26.263000-06:00,2020-03-03 20:00
1583287226313.0,4.6291485,-0.8748756999999999,8.818596000000001,2020-03-03 20:00:26.313000-06:00,2020-03-03 20:00
1583287226362.0,4.6700295999999994,-0.9201629000000001,8.825686,2020-03-03 20:00:26.362000-06:00,2020-03-03 20:00
1583287226413.0,4.6361113,-0.8773738999999999,8.804511,2020-03-03 20:00:26.413000-06:00,2020-03-03 20:00
1583287226463.0,4.611322400000001,-0.9110546999999999,8.814579,2020-03-03 20:00:26.463000-06:00,2020-03-03 20:00
1583287226512.0,4.6282760000000005,-0.88365036,8.824345,2020-03-03 20:00:26.512000-06:00,2020-03-03 20:00
1583287226563.0,4.6406507,-0.92330074,8.819009,2020-03-03 20:00:26.563000-06:00,2020-03-03 20:00
1583287226612.0,4.6202435,-0.8745049000000001,8.812028999999999,2020-03-03 20:00:26.612000-06:00,2020-03-03 20:00
1583287226662.0,4.629708,-0.90220004,8.8293495,2020-03-03 20:00:26.662000-06:00,2020-03-03 20:00
1583287226712.0,4.6324015,-0.8956808,8.790524000000001,2020-03-03 20:00:26.712000-06:00,2020-03-03 20:00
1583287226763.0,4.659541,-0.9145620000000001,8.827825,2020-03-03 20:00:26.763000-06:00,2020-03-03 20:00
1583287226812.0,4.6169157,-0.9241249,8.85972,2020-03-03 20:00:26.812000-06:00,2020-03-03 20:00
1583287226862.0,4.625067,-0.91595435,8.783513000000001,2020-03-03 20:00:26.862000-06:00,2020-03-03 20:00
1583287226912.0,4.639317500000001,-0.87569976,8.834727,2020-03-03 20:00:26.912000-06:00,2020-03-03 20:00
1583287226963.0,4.6548367,-0.8528628,8.834626,2020-03-03 20:00:26.963000-06:00,2020-03-03 20:00
1583287227013.0,4.6454496,-0.92402136,8.790811,2020-03-03 20:00:27.013000-06:00,2020-03-03 20:00
1583287227063.0,4.6383339999999995,-0.9218519000000001,8.833438000000001,2020-03-03 20:00:27.063000-06:00,2020-03-03 20:00
1583287227112.0,4.650992,-0.97292453,8.766461999999999,2020-03-03 20:00:27.112000-06:00,2020-03-03 20:00
1583287227162.0,4.6272426,-0.8834796,8.846324000000001,2020-03-03 20:00:27.162000-06:00,2020-03-03 20:00
1583287227212.0,4.622203,-0.9273073000000001,8.820573,2020-03-03 20:00:27.212000-06:00,2020-03-03 20:00
1583287227262.0,4.616171400000001,-0.96451753,8.808178,2020-03-03 20:00:27.262000-06:00,2020-03-03 20:00
1583287227312.0,4.6575136,-0.9556205,8.796515,2020-03-03 20:00:27.312000-06:00,2020-03-03 20:00
1583287227362.0,4.657762,-0.9556205,8.801891,2020-03-03 20:00:27.362000-06:00,2020-03-03 20:00
1583287227412.0,4.639610299999999,-0.90088445,8.821152,2020-03-03 20:00:27.412000-06:00,2020-03-03 20:00
1583287227463.0,4.662569,-0.94602203,8.775139,2020-03-03 20:00:27.463000-06:00,2020-03-03 20:00
1583287227512.0,4.648634400000001,-0.936685,8.835547,2020-03-03 20:00:27.512000-06:00,2020-03-03 20:00
1583287227562.0,4.609792,-0.9457952,8.790691,2020-03-03 20:00:27.562000-06:00,2020-03-03 20:00
1583287227613.0,4.6597643,-0.9996053,8.791421000000001,2020-03-03 20:00:27.613000-06:00,2020-03-03 20:00
1583287227662.0,4.6659074,-0.9497097,8.786515,2020-03-03 20:00:27.662000-06:00,2020-03-03 20:00
1583287227713.0,4.677282,-0.89985967,8.8105345,2020-03-03 20:00:27.713000-06:00,2020-03-03 20:00
1583287227762.0,4.6381974,-0.93433625,8.77113,2020-03-03 20:00:27.762000-06:00,2020-03-03 20:00
1583287227813.0,4.6261673,-0.99723494,8.804602000000001,2020-03-03 20:00:27.813000-06:00,2020-03-03 20:00
1583287227862.0,4.6586422999999995,-1.0190645,8.78701,2020-03-03 20:00:27.862000-06:00,2020-03-03 20:00
1583287227912.0,4.637221299999999,-0.96449167,8.8061495,2020-03-03 20:00:27.912000-06:00,2020-03-03 20:00
1583287227962.0,4.6337943,-0.91922516,8.81765,2020-03-03 20:00:27.962000-06:00,2020-03-03 20:00
1583287228013.0,4.646826,-1.0068359,8.778994,2020-03-03 20:00:28.013000-06:00,2020-03-03 20:00
1583287228063.0,4.655364499999999,-1.0117055,8.810012,2020-03-03 20:00:28.063000-06:00,2020-03-03 20:00
1583287228112.0,4.6261434999999995,-0.9820849,8.788998,2020-03-03 20:00:28.112000-06:00,2020-03-03 20:00
1583287228162.0,4.6262517,-0.9686505,8.80717,2020-03-03 20:00:28.162000-06:00,2020-03-03 20:00
1583287228212.0,4.617704,-0.9935706,8.816867,2020-03-03 20:00:28.212000-06:00,2020-03-03 20:00
1583287228263.0,4.614091,-0.98416054,8.81327,2020-03-03 20:00:28.263000-06:00,2020-03-03 20:00
1583287228312.0,4.6315764999999995,-0.99532795,8.804511,2020-03-03 20:00:28.312000-06:00,2020-03-03 20:00
1583287228363.0,4.6305304000000005,-0.9781403000000001,8.809663,2020-03-03 20:00:28.363000-06:00,2020-03-03 20:00
1583287228412.0,4.617698000000001,-0.99125195,8.817944,2020-03-03 20:00:28.412000-06:00,2020-03-03 20:00
1583287228462.0,4.607682700000001,-0.9715604,8.801242,2020-03-03 20:00:28.462000-06:00,2020-03-03 20:00
1583287228512.0,4.6062694,-1.0254223,8.806716,2020-03-03 20:00:28.512000-06:00,2020-03-03 20:00
1583287228562.0,4.6177660000000005,-1.0019892,8.7936125,2020-03-03 20:00:28.562000-06:00,2020-03-03 20:00
1583287228612.0,4.6021624,-0.97424483,8.821486,2020-03-03 20:00:28.612000-06:00,2020-03-03 20:00
1583287228663.0,4.616073,-0.96417594,8.821621,2020-03-03 20:00:28.663000-06:00,2020-03-03 20:00
1583287228713.0,4.6112475,-0.9987999,8.813974,2020-03-03 20:00:28.713000-06:00,2020-03-03 20:00
1583287228762.0,4.612856,-1.0152684,8.836679,2020-03-03 20:00:28.762000-06:00,2020-03-03 20:00
1583287228813.0,4.592811,-0.99073136,8.796512,2020-03-03 20:00:28.813000-06:00,2020-03-03 20:00
1583287228862.0,4.612915,-0.99522936,8.814196,2020-03-03 20:00:28.862000-06:00,2020-03-03 20:00
1583287228913.0,4.573807,-1.0069475,8.841046,2020-03-03 20:00:28.913000-06:00,2020-03-03 20:00
1583287228962.0,4.568149,-1.0474806,8.865363,2020-03-03 20:00:28.962000-06:00,2020-03-03 20:00
1583287229012.0,4.595175,-0.9915834000000001,8.798902,2020-03-03 20:00:29.012000-06:00,2020-03-03 20:00
1583287229062.0,4.591327,-0.9906326999999999,8.842572,2020-03-03 20:00:29.062000-06:00,2020-03-03 20:00
1583287229112.0,4.5723970000000005,-1.0276597,8.828205,2020-03-03 20:00:29.112000-06:00,2020-03-03 20:00
1583287229162.0,4.5666747,-1.0472636999999998,8.816988,2020-03-03 20:00:29.162000-06:00,2020-03-03 20:00
1583287229213.0,4.5705075,-1.0265608,8.839424000000001,2020-03-03 20:00:29.213000-06:00,2020-03-03 20:00
1583287229262.0,4.583693,-0.9958809999999999,8.815539,2020-03-03 20:00:29.262000-06:00,2020-03-03 20:00
1583287229312.0,4.582235,-1.0020487,8.827337,2020-03-03 20:00:29.312000-06:00,2020-03-03 20:00
1583287229362.0,4.547951,-1.0268744,8.834787,2020-03-03 20:00:29.362000-06:00,2020-03-03 20:00
1583287229413.0,4.5831237,-1.0211630999999999,8.827797,2020-03-03 20:00:29.413000-06:00,2020-03-03 20:00
1583287229462.0,4.585292,-0.991715,8.81017,2020-03-03 20:00:29.462000-06:00,2020-03-03 20:00
1583287229513.0,4.5697980000000005,-1.0005014,8.873247000000001,2020-03-03 20:00:29.513000-06:00,2020-03-03 20:00
1583287229562.0,4.5531516,-1.037151,8.769196,2020-03-03 20:00:29.562000-06:00,2020-03-03 20:00
1583287229612.0,4.579326,-1.0211953999999999,8.839516999999999,2020-03-03 20:00:29.612000-06:00,2020-03-03 20:00
1583287229663.0,4.573306,-1.0061526,8.843958,2020-03-03 20:00:29.663000-06:00,2020-03-03 20:00
1583287229712.0,4.560403,-1.0174559,8.816367999999999,2020-03-03 20:00:29.712000-06:00,2020-03-03 20:00
1583287229762.0,4.579076000000001,-0.9928454,8.814929,2020-03-03 20:00:29.762000-06:00,2020-03-03 20:00
1583287229813.0,4.568332700000001,-0.9769421999999999,8.844958,2020-03-03 20:00:29.813000-06:00,2020-03-03 20:00
1583287229862.0,4.5448923,-0.99964315,8.821613000000001,2020-03-03 20:00:29.862000-06:00,2020-03-03 20:00
1583287229912.0,4.5872273,-1.0558393999999998,8.831471,2020-03-03 20:00:29.912000-06:00,2020-03-03 20:00
1583287229962.0,4.593978400000001,-1.0032018,8.8291235,2020-03-03 20:00:29.962000-06:00,2020-03-03 20:00
1583287230012.0,4.574987,-0.99645483,8.836065,2020-03-03 20:00:30.012000-06:00,2020-03-03 20:00
1583287230062.0,4.5669236,-0.9984252,8.817274000000001,2020-03-03 20:00:30.062000-06:00,2020-03-03 20:00
1583287230113.0,4.5592656,-1.0422487,8.841078999999999,2020-03-03 20:00:30.113000-06:00,2020-03-03 20:00
1583287230163.0,4.566815,-1.0393194,8.835509,2020-03-03 20:00:30.163000-06:00,2020-03-03 20:00
1583287230212.0,4.5669074,-1.0202394000000001,8.827100999999999,2020-03-03 20:00:30.212000-06:00,2020-03-03 20:00
1583287230263.0,4.557746400000001,-0.9957597,8.835653,2020-03-03 20:00:30.263000-06:00,2020-03-03 20:00
1583287230313.0,4.576324,-1.0304604,8.840022,2020-03-03 20:00:30.313000-06:00,2020-03-03 20:00
1583287230363.0,4.5692444000000005,-1.0302632,8.824850999999999,2020-03-03 20:00:30.363000-06:00,2020-03-03 20:00
1583287230412.0,4.563209,-1.044254,8.839827,2020-03-03 20:00:30.412000-06:00,2020-03-03 20:00
1583287230463.0,4.534365,-1.0329813,8.824380999999999,2020-03-03 20:00:30.463000-06:00,2020-03-03 20:00
1583287230513.0,4.570072,-1.0629604,8.812233,2020-03-03 20:00:30.513000-06:00,2020-03-03 20:00
1583287230562.0,4.5649858,-1.0469708,8.846772,2020-03-03 20:00:30.562000-06:00,2020-03-03 20:00
1583287230612.0,4.558689,-1.0175809999999998,8.828329,2020-03-03 20:00:30.612000-06:00,2020-03-03 20:00
1583287230663.0,4.5719943,-1.0383816,8.794507000000001,2020-03-03 20:00:30.663000-06:00,2020-03-03 20:00
1583287230712.0,4.5734944,-1.0714133999999997,8.862035,2020-03-03 20:00:30.712000-06:00,2020-03-03 20:00
1583287230763.0,4.533139,-1.0335066,8.846639,2020-03-03 20:00:30.763000-06:00,2020-03-03 20:00
1583287230812.0,4.5758324,-1.0479214,8.810734,2020-03-03 20:00:30.812000-06:00,2020-03-03 20:00
1583287230863.0,4.567007,-1.0697718,8.828242999999999,2020-03-03 20:00:30.863000-06:00,2020-03-03 20:00
1583287230913.0,4.570525599999999,-1.1236691,8.807863000000001,2020-03-03 20:00:30.913000-06:00,2020-03-03 20:00
1583287230962.0,4.5609484,-1.0440346,8.843459,2020-03-03 20:00:30.962000-06:00,2020-03-03 20:00
1583287231012.0,4.629696,-0.96567637,8.849885,2020-03-03 20:00:31.012000-06:00,2020-03-03 20:00
1583287231063.0,4.7943287,-0.5819254,8.947277,2020-03-03 20:00:31.063000-06:00,2020-03-03 20:00
1583287231113.0,5.139141599999999,0.7304765000000001,9.504076,2020-03-03 20:00:31.113000-06:00,2020-03-03 20:00
1583287231163.0,6.657632,3.8351872000000005,10.480728,2020-03-03 20:00:31.163000-06:00,2020-03-03 20:00
1583287231213.0,7.2658725,4.416302,9.427846,2020-03-03 20:00:31.213000-06:00,2020-03-03 20:00
1583287231263.0,4.9015017,0.91971564,7.0603294000000005,2020-03-03 20:00:31.263000-06:00,2020-03-03 20:00
1583287231312.0,5.422651999999999,3.705393,6.182276,2020-03-03 20:00:31.312000-06:00,2020-03-03 20:00
1583287231363.0,11.533163,0.82921535,6.400648,2020-03-03 20:00:31.363000-06:00,2020-03-03 20:00
1583287231413.0,17.251139000000002,-2.3626235,5.8730483,2020-03-03 20:00:31.413000-06:00,2020-03-03 20:00
1583287231462.0,21.3014,-4.141253,5.177409,2020-03-03 20:00:31.462000-06:00,2020-03-03 20:00
1583287231512.0,21.734226,-7.803039599999999,4.7425565999999995,2020-03-03 20:00:31.512000-06:00,2020-03-03 20:00
1583287231562.0,19.317165,-13.894864000000002,1.7815855999999999,2020-03-03 20:00:31.562000-06:00,2020-03-03 20:00
1583287231613.0,14.044564999999999,-16.961054,0.62634265,2020-03-03 20:00:31.613000-06:00,2020-03-03 20:00
1583287231663.0,9.43272,-18.611801,-2.2291198,2020-03-03 20:00:31.663000-06:00,2020-03-03 20:00
1583287231713.0,6.848884,-17.424770000000002,-5.061093,2020-03-03 20:00:31.713000-06:00,2020-03-03 20:00
1583287231763.0,6.7630533999999995,-13.61384,-5.350186,2020-03-03 20:00:31.763000-06:00,2020-03-03 20:00
1583287231813.0,10.171265,-7.351242,-4.5228224,2020-03-03 20:00:31.813000-06:00,2020-03-03 20:00
1583287231862.0,9.375979,0.45641375,-3.8643464999999995,2020-03-03 20:00:31.862000-06:00,2020-03-03 20:00
1583287231913.0,3.9235193999999995,7.1696134,-3.4808354,2020-03-03 20:00:31.913000-06:00,2020-03-03 20:00
1583287231963.0,3.7399892999999995,8.739811,1.2738303999999998,2020-03-03 20:00:31.963000-06:00,2020-03-03 20:00
1583287232012.0,5.7372584,8.208695,3.2485939999999998,2020-03-03 20:00:32.012000-06:00,2020-03-03 20:00
1583287232063.0,9.096902,5.295147,5.907023400000001,2020-03-03 20:00:32.063000-06:00,2020-03-03 20:00
1583287232112.0,13.659189000000001,3.5456543,10.031442,2020-03-03 20:00:32.112000-06:00,2020-03-03 20:00
1583287232163.0,19.701754,0.1472714,13.965385000000001,2020-03-03 20:00:32.163000-06:00,2020-03-03 20:00
1583287232212.0,24.238188,-5.722171299999999,16.736206,2020-03-03 20:00:32.212000-06:00,2020-03-03 20:00
1583287232262.0,26.606102000000003,-12.134945,15.869321,2020-03-03 20:00:32.262000-06:00,2020-03-03 20:00
1583287232312.0,25.299107,-17.255743,11.005275,2020-03-03 20:00:32.312000-06:00,2020-03-03 20:00
1583287232362.0,21.787613,-19.171618,5.9439363,2020-03-03 20:00:32.362000-06:00,2020-03-03 20:00
1583287232412.0,17.813438,-18.963984,1.2279136999999998,2020-03-03 20:00:32.412000-06:00,2020-03-03 20:00
1583287232463.0,13.632835,-17.895647,-2.4163857,2020-03-03 20:00:32.463000-06:00,2020-03-03 20:00
1583287232512.0,11.163950999999999,-15.029141000000001,-5.2679849999999995,2020-03-03 20:00:32.512000-06:00,2020-03-03 20:00
1583287232563.0,10.876955,-10.616883,-6.253489,2020-03-03 20:00:32.563000-06:00,2020-03-03 20:00
1583287232613.0,12.146258,-6.172386,-5.447285,2020-03-03 20:00:32.613000-06:00,2020-03-03 20:00
1583287232663.0,11.909279,-0.8770678,-3.9748812000000004,2020-03-03 20:00:32.663000-06:00,2020-03-03 20:00
1583287232713.0,6.975485000000001,3.1182298999999998,-3.0276704,2020-03-03 20:00:32.713000-06:00,2020-03-03 20:00
1583287232763.0,6.0200496,5.235133599999999,-0.10508895,2020-03-03 20:00:32.763000-06:00,2020-03-03 20:00
1583287232812.0,5.315628,7.044492,2.892821,2020-03-03 20:00:32.812000-06:00,2020-03-03 20:00
1583287232863.0,6.0605116,6.160678,5.406718700000001,2020-03-03 20:00:32.863000-06:00,2020-03-03 20:00
1583287232913.0,8.950251,4.574142,8.907859,2020-03-03 20:00:32.913000-06:00,2020-03-03 20:00
1583287232962.0,12.674558,3.7042553,13.975323000000001,2020-03-03 20:00:32.962000-06:00,2020-03-03 20:00
1583287233012.0,17.586482999999998,0.6529789,15.598495499999999,2020-03-03 20:00:33.012000-06:00,2020-03-03 20:00
1583287233062.0,22.332886,-3.5311127,14.934841,2020-03-03 20:00:33.062000-06:00,2020-03-03 20:00
1583287233113.0,26.799746000000003,-6.703324,11.572823,2020-03-03 20:00:33.113000-06:00,2020-03-03 20:00
1583287233162.0,26.28769,-12.3636875,8.541217999999999,2020-03-03 20:00:33.162000-06:00,2020-03-03 20:00
1583287233212.0,21.87375,-17.827317999999998,5.9627647,2020-03-03 20:00:33.212000-06:00,2020-03-03 20:00
1583287233262.0,17.99535,-18.804165,3.5824623,2020-03-03 20:00:33.262000-06:00,2020-03-03 20:00
1583287233313.0,13.218664000000002,-18.730362,-0.32314748,2020-03-03 20:00:33.313000-06:00,2020-03-03 20:00
1583287233363.0,12.131866,-13.899991,-2.3155735,2020-03-03 20:00:33.363000-06:00,2020-03-03 20:00
1583287233413.0,12.48093,-8.288559,-4.607571599999999,2020-03-03 20:00:33.413000-06:00,2020-03-03 20:00
1583287233463.0,14.526532000000001,-3.8565803,-3.8377917,2020-03-03 20:00:33.463000-06:00,2020-03-03 20:00
1583287233512.0,15.851695000000001,-0.6990371999999999,-2.566302,2020-03-03 20:00:33.512000-06:00,2020-03-03 20:00
1583287233562.0,14.076804999999998,1.0348747,-1.2449178,2020-03-03 20:00:33.562000-06:00,2020-03-03 20:00
1583287233613.0,9.439067999999999,2.3857953999999997,0.71578485,2020-03-03 20:00:33.613000-06:00,2020-03-03 20:00
1583287233663.0,5.2070555999999995,2.9420834,2.8834524,2020-03-03 20:00:33.663000-06:00,2020-03-03 20:00
1583287233713.0,1.0585272,1.9067892,5.3520617,2020-03-03 20:00:33.713000-06:00,2020-03-03 20:00
1583287233763.0,0.096595526,-0.63493794,8.315348,2020-03-03 20:00:33.763000-06:00,2020-03-03 20:00
1583287233812.0,2.1873713,-6.646783999999999,9.689002,2020-03-03 20:00:33.812000-06:00,2020-03-03 20:00
1583287233862.0,4.3936779999999995,-11.146889,9.594103,2020-03-03 20:00:33.862000-06:00,2020-03-03 20:00
1583287233913.0,4.168602,-12.506939,5.994055,2020-03-03 20:00:33.913000-06:00,2020-03-03 20:00
1583287233963.0,6.3806486,-10.620294,3.129543,2020-03-03 20:00:33.963000-06:00,2020-03-03 20:00
1583287234012.0,12.939703,-19.396435,3.4153576,2020-03-03 20:00:34.012000-06:00,2020-03-03 20:00
1583287234063.0,11.581151,-10.591610000000001,14.526656,2020-03-03 20:00:34.063000-06:00,2020-03-03 20:00
1583287234112.0,6.820645,4.086930799999999,10.560758,2020-03-03 20:00:34.112000-06:00,2020-03-03 20:00
1583287234163.0,4.8689237,-0.64899087,4.393632,2020-03-03 20:00:34.163000-06:00,2020-03-03 20:00
1583287234213.0,5.2033963,-10.365182,5.056594400000001,2020-03-03 20:00:34.213000-06:00,2020-03-03 20:00
1583287234263.0,3.6949186000000003,-9.609788,2.8107740000000003,2020-03-03 20:00:34.263000-06:00,2020-03-03 20:00
1583287234312.0,2.7453732000000004,-7.377884,4.014634,2020-03-03 20:00:34.312000-06:00,2020-03-03 20:00
1583287234363.0,3.594835,-6.4094169999999995,6.399030000000001,2020-03-03 20:00:34.363000-06:00,2020-03-03 20:00
1583287234413.0,4.056304,-5.289386,7.043174700000001,2020-03-03 20:00:34.413000-06:00,2020-03-03 20:00
1583287234463.0,4.4796443,-6.0362160000000005,6.1512839999999995,2020-03-03 20:00:34.463000-06:00,2020-03-03 20:00
1583287234513.0,4.2983,-7.5636106,5.0206094000000006,2020-03-03 20:00:34.513000-06:00,2020-03-03 20:00
1583287234562.0,4.1406035,-7.182432700000001,5.119594,2020-03-03 20:00:34.562000-06:00,2020-03-03 20:00
1583287234612.0,4.238925,-6.5629029999999995,5.914744000000001,2020-03-03 20:00:34.612000-06:00,2020-03-03 20:00
1583287234662.0,4.308681,-6.317598,6.1551766,2020-03-03 20:00:34.662000-06:00,2020-03-03 20:00
1583287234712.0,4.3245062999999995,-6.488104,5.9665647,2020-03-03 20:00:34.712000-06:00,2020-03-03 20:00
1583287234762.0,4.2906260000000005,-6.7390094,5.737756299999999,2020-03-03 20:00:34.762000-06:00,2020-03-03 20:00
1583287234812.0,4.160594000000001,-6.8160315,5.635624,2020-03-03 20:00:34.812000-06:00,2020-03-03 20:00
1583287234863.0,4.0998745,-6.808174,5.618496400000001,2020-03-03 20:00:34.863000-06:00,2020-03-03 20:00
1583287234912.0,4.151244,-6.8011985,5.6922635999999995,2020-03-03 20:00:34.912000-06:00,2020-03-03 20:00
1583287234962.0,4.09089,-6.808866,5.707319999999999,2020-03-03 20:00:34.962000-06:00,2020-03-03 20:00
1583287235013.0,4.0643720000000005,-6.7759776,5.737205,2020-03-03 20:00:35.013000-06:00,2020-03-03 20:00
1583287235062.0,4.1634720000000005,-6.6932415999999995,5.7073774,2020-03-03 20:00:35.062000-06:00,2020-03-03 20:00
1583287235113.0,4.1909103,-6.719682700000001,5.7381043,2020-03-03 20:00:35.113000-06:00,2020-03-03 20:00
1583287235163.0,4.1891110000000005,-6.7407070000000004,5.759732,2020-03-03 20:00:35.163000-06:00,2020-03-03 20:00
1583287235213.0,4.0988564,-6.7601533,5.731132,2020-03-03 20:00:35.213000-06:00,2020-03-03 20:00
1583287235262.0,4.0710716,-6.830282,5.7324224,2020-03-03 20:00:35.262000-06:00,2020-03-03 20:00
1583287235313.0,4.115520500000001,-6.928511,5.6239805,2020-03-03 20:00:35.313000-06:00,2020-03-03 20:00
1583287235363.0,4.0529923,-6.8997173,5.703461,2020-03-03 20:00:35.363000-06:00,2020-03-03 20:00
1583287235413.0,4.032992,-6.806360000000001,5.7272162,2020-03-03 20:00:35.413000-06:00,2020-03-03 20:00
1583287235463.0,4.020496,-6.951556699999999,5.720142,2020-03-03 20:00:35.463000-06:00,2020-03-03 20:00
1583287235513.0,3.8606699,-6.987717999999999,5.808303400000001,2020-03-03 20:00:35.513000-06:00,2020-03-03 20:00
1583287235562.0,3.5021372000000004,-7.071343400000001,5.899896,2020-03-03 20:00:35.562000-06:00,2020-03-03 20:00
1583287235612.0,3.245625,-7.631517,5.7689085,2020-03-03 20:00:35.612000-06:00,2020-03-03 20:00
1583287235662.0,3.3408095999999996,-7.0192190000000005,5.4316926,2020-03-03 20:00:35.662000-06:00,2020-03-03 20:00
1583287235712.0,3.7949553,-6.851324000000001,5.212429,2020-03-03 20:00:35.712000-06:00,2020-03-03 20:00
1583287235762.0,4.1109295,-7.350039999999999,5.526562,2020-03-03 20:00:35.762000-06:00,2020-03-03 20:00
1583287235813.0,4.0779815,-6.8009699999999995,5.9502597,2020-03-03 20:00:35.813000-06:00,2020-03-03 20:00
1583287235862.0,3.5613284,-6.829225,6.1607650000000005,2020-03-03 20:00:35.862000-06:00,2020-03-03 20:00
1583287235912.0,3.6141013999999996,-6.5750856,6.253846,2020-03-03 20:00:35.912000-06:00,2020-03-03 20:00
1583287235963.0,3.5664135999999997,-6.381282,6.039435,2020-03-03 20:00:35.963000-06:00,2020-03-03 20:00
1583287236013.0,3.6532245000000003,-6.866017,5.64348,2020-03-03 20:00:36.013000-06:00,2020-03-03 20:00
1583287236063.0,3.2320256,-7.585939999999999,4.957765,2020-03-03 20:00:36.063000-06:00,2020-03-03 20:00
1583287236113.0,3.069628,-7.723625999999999,5.144374,2020-03-03 20:00:36.113000-06:00,2020-03-03 20:00
1583287236162.0,3.5650692000000004,-6.708785499999999,5.6970325,2020-03-03 20:00:36.162000-06:00,2020-03-03 20:00
1583287236212.0,3.929785,-6.9115553,5.814493,2020-03-03 20:00:36.212000-06:00,2020-03-03 20:00
1583287236263.0,4.188502,-6.780667,5.846317,2020-03-03 20:00:36.263000-06:00,2020-03-03 20:00
1583287236312.0,4.7132819999999995,-6.201267,6.171053,2020-03-03 20:00:36.312000-06:00,2020-03-03 20:00
1583287236363.0,5.268018700000001,-6.080814,5.7970734,2020-03-03 20:00:36.363000-06:00,2020-03-03 20:00
1583287236413.0,5.5644917000000005,-5.2975154,5.715477,2020-03-03 20:00:36.413000-06:00,2020-03-03 20:00
1583287236462.0,5.705005,-5.8076105,5.7815080000000005,2020-03-03 20:00:36.462000-06:00,2020-03-03 20:00
1583287236513.0,5.8596325,-5.616275,5.822573,2020-03-03 20:00:36.513000-06:00,2020-03-03 20:00
1583287236563.0,6.200989,-5.6779556,5.611464499999999,2020-03-03 20:00:36.563000-06:00,2020-03-03 20:00
1583287236612.0,6.1678734,-5.3934627,5.4270997,2020-03-03 20:00:36.612000-06:00,2020-03-03 20:00
1583287236662.0,5.881325,-6.287616000000001,5.1985345,2020-03-03 20:00:36.662000-06:00,2020-03-03 20:00
1583287236713.0,5.403892,-6.703377000000001,4.9544387,2020-03-03 20:00:36.713000-06:00,2020-03-03 20:00
1583287236762.0,5.2250266,-7.155947,4.6812153,2020-03-03 20:00:36.762000-06:00,2020-03-03 20:00
1583287236813.0,4.9745584,-7.361070599999999,4.6585383,2020-03-03 20:00:36.813000-06:00,2020-03-03 20:00
1583287236863.0,4.627436,-6.2878532,5.485679599999999,2020-03-03 20:00:36.863000-06:00,2020-03-03 20:00
1583287236912.0,4.690934700000001,-4.8587203,6.3407919999999995,2020-03-03 20:00:36.912000-06:00,2020-03-03 20:00
1583287236962.0,5.121064700000001,-3.7502421999999997,6.939558,2020-03-03 20:00:36.962000-06:00,2020-03-03 20:00
1583287237012.0,5.515661,-2.211793,7.7426887,2020-03-03 20:00:37.012000-06:00,2020-03-03 20:00
1583287237062.0,6.153363,-1.9629496,8.259514,2020-03-03 20:00:37.062000-06:00,2020-03-03 20:00
1583287237112.0,6.2561374,-2.3816373,7.902150999999999,2020-03-03 20:00:37.112000-06:00,2020-03-03 20:00
1583287237162.0,6.220443,-2.4842665,7.9032636,2020-03-03 20:00:37.162000-06:00,2020-03-03 20:00
1583287237212.0,5.922998000000001,-2.34631,8.071529,2020-03-03 20:00:37.212000-06:00,2020-03-03 20:00
1583287237262.0,5.6194444,-2.3474182999999997,7.962323,2020-03-03 20:00:37.262000-06:00,2020-03-03 20:00
1583287237312.0,5.595379400000001,-2.1659646,8.052846,2020-03-03 20:00:37.312000-06:00,2020-03-03 20:00
1583287237362.0,5.4201117,-2.3325047000000003,8.299762,2020-03-03 20:00:37.362000-06:00,2020-03-03 20:00
1583287237413.0,4.9842644,-3.1325114,8.048776,2020-03-03 20:00:37.413000-06:00,2020-03-03 20:00
1583287237462.0,4.679964,-3.6693294,7.5677633,2020-03-03 20:00:37.462000-06:00,2020-03-03 20:00
1583287237512.0,5.0824313,-4.283861,7.486003,2020-03-03 20:00:37.512000-06:00,2020-03-03 20:00
1583287237562.0,5.48272,-4.473787000000001,7.443228200000001,2020-03-03 20:00:37.562000-06:00,2020-03-03 20:00
1583287237612.0,5.389345,-4.758384700000001,7.272825200000001,2020-03-03 20:00:37.612000-06:00,2020-03-03 20:00
1583287237663.0,4.3753910000000005,-4.318021,7.065444,2020-03-03 20:00:37.663000-06:00,2020-03-03 20:00
1583287237712.0,3.4993494,-3.9066038,7.3266615999999996,2020-03-03 20:00:37.712000-06:00,2020-03-03 20:00
1583287237763.0,3.6364403,-5.0269923,8.088371,2020-03-03 20:00:37.763000-06:00,2020-03-03 20:00
1583287237813.0,4.8414803,-6.6387777,7.831843400000001,2020-03-03 20:00:37.813000-06:00,2020-03-03 20:00
1583287237863.0,4.421762999999999,-5.160326,6.733825,2020-03-03 20:00:37.863000-06:00,2020-03-03 20:00
1583287237913.0,4.326596,-4.134729,7.281855999999999,2020-03-03 20:00:37.913000-06:00,2020-03-03 20:00
1583287237963.0,4.5016723,-4.9594955,7.744288,2020-03-03 20:00:37.963000-06:00,2020-03-03 20:00
1583287238013.0,4.2471666,-5.3114815,7.2673535000000005,2020-03-03 20:00:38.013000-06:00,2020-03-03 20:00
1583287238062.0,4.032531,-5.360086,7.134537700000001,2020-03-03 20:00:38.062000-06:00,2020-03-03 20:00
1583287238113.0,3.8670316,-5.190295,7.31522,2020-03-03 20:00:38.113000-06:00,2020-03-03 20:00
1583287238163.0,3.5734806000000003,-5.2337446,7.330305,2020-03-03 20:00:38.163000-06:00,2020-03-03 20:00
1583287238212.0,3.4342442,-5.531333,7.322012400000001,2020-03-03 20:00:38.212000-06:00,2020-03-03 20:00
1583287238263.0,3.4392507000000005,-5.5093164,7.3562727,2020-03-03 20:00:38.263000-06:00,2020-03-03 20:00
1583287238312.0,3.5417366,-5.38404,7.4547873,2020-03-03 20:00:38.312000-06:00,2020-03-03 20:00
1583287238363.0,3.6515364999999997,-5.294384,7.4358783,2020-03-03 20:00:38.363000-06:00,2020-03-03 20:00
1583287238412.0,3.6821568,-5.304924,7.375820599999999,2020-03-03 20:00:38.412000-06:00,2020-03-03 20:00
1583287238462.0,3.6390013999999997,-5.341531,7.388662299999999,2020-03-03 20:00:38.462000-06:00,2020-03-03 20:00
1583287238513.0,3.5417650000000003,-5.353542299999999,7.4493074,2020-03-03 20:00:38.513000-06:00,2020-03-03 20:00
1583287238562.0,3.5074587,-5.348043,7.401015299999999,2020-03-03 20:00:38.562000-06:00,2020-03-03 20:00
1583287238613.0,3.5878657999999994,-5.4078550000000005,7.3628279999999995,2020-03-03 20:00:38.613000-06:00,2020-03-03 20:00
1583287238662.0,3.5746010000000004,-5.480948400000001,7.3580856,2020-03-03 20:00:38.662000-06:00,2020-03-03 20:00
1583287238712.0,3.5365016000000002,-5.525323,7.327705,2020-03-03 20:00:38.712000-06:00,2020-03-03 20:00
1583287238762.0,3.5577705,-5.499928,7.3318449999999995,2020-03-03 20:00:38.762000-06:00,2020-03-03 20:00
1583287238813.0,3.5316400000000003,-5.5285915999999995,7.3073564,2020-03-03 20:00:38.813000-06:00,2020-03-03 20:00
1583287238863.0,3.4782906000000002,-5.5704956,7.3218307000000005,2020-03-03 20:00:38.863000-06:00,2020-03-03 20:00
1583287238913.0,3.4983296000000004,-5.5380316,7.350262599999999,2020-03-03 20:00:38.913000-06:00,2020-03-03 20:00
1583287238963.0,3.5747117999999993,-5.5146565,7.3140326,2020-03-03 20:00:38.963000-06:00,2020-03-03 20:00
1583287239013.0,3.5715241,-5.499185,7.326064,2020-03-03 20:00:39.013000-06:00,2020-03-03 20:00
1583287239063.0,3.5311036,-5.569521400000001,7.296757,2020-03-03 20:00:39.063000-06:00,2020-03-03 20:00
1583287239113.0,3.5260977999999996,-5.5142703,7.271531599999999,2020-03-03 20:00:39.113000-06:00,2020-03-03 20:00
1583287239163.0,3.5621197,-5.492806,7.316917,2020-03-03 20:00:39.163000-06:00,2020-03-03 20:00
1583287239212.0,3.5349932,-5.484335,7.351096000000001,2020-03-03 20:00:39.212000-06:00,2020-03-03 20:00
1583287239263.0,3.499448,-5.518736,7.3035393,2020-03-03 20:00:39.263000-06:00,2020-03-03 20:00
1583287239313.0,3.5380013,-5.512121700000001,7.2727976,2020-03-03 20:00:39.313000-06:00,2020-03-03 20:00
1583287239362.0,3.6496284,-5.4965515,7.1753693,2020-03-03 20:00:39.362000-06:00,2020-03-03 20:00
1583287239413.0,3.8094096,-5.4575205,7.2360005,2020-03-03 20:00:39.413000-06:00,2020-03-03 20:00
1583287239463.0,3.9083078,-5.5064519999999995,7.3622994,2020-03-03 20:00:39.463000-06:00,2020-03-03 20:00
1583287239513.0,3.8274372000000003,-5.4336839999999995,7.383564,2020-03-03 20:00:39.513000-06:00,2020-03-03 20:00
1583287239562.0,3.5661404,-5.398366,7.310117,2020-03-03 20:00:39.562000-06:00,2020-03-03 20:00
1583287239612.0,3.5829222,-5.568422,7.3722243,2020-03-03 20:00:39.612000-06:00,2020-03-03 20:00
1583287239663.0,3.6886023999999997,-5.5366898,7.306566,2020-03-03 20:00:39.663000-06:00,2020-03-03 20:00
1583287239712.0,3.8108422999999996,-5.4495997,7.185175,2020-03-03 20:00:39.712000-06:00,2020-03-03 20:00
1583287239763.0,3.7644540999999996,-5.340547,7.202564,2020-03-03 20:00:39.763000-06:00,2020-03-03 20:00
1583287239813.0,3.8614676,-5.251537,7.3785243000000005,2020-03-03 20:00:39.813000-06:00,2020-03-03 20:00
1583287239863.0,3.7724318999999995,-5.1591682,7.364299000000001,2020-03-03 20:00:39.863000-06:00,2020-03-03 20:00
1583287239912.0,3.4704175000000004,-5.7440143,7.223831,2020-03-03 20:00:39.912000-06:00,2020-03-03 20:00
1583287239962.0,3.6819372,-5.3974514000000005,7.5714064,2020-03-03 20:00:39.962000-06:00,2020-03-03 20:00
1583287240012.0,3.8850790999999996,-4.9888773,7.474753999999999,2020-03-03 20:00:40.012000-06:00,2020-03-03 20:00
1583287240062.0,3.931679,-5.575598,7.062317,2020-03-03 20:00:40.062000-06:00,2020-03-03 20:00
1583287240113.0,3.8466462999999997,-5.3763003,7.305016,2020-03-03 20:00:40.113000-06:00,2020-03-03 20:00
1583287240162.0,3.6999662000000004,-5.263106,7.485001,2020-03-03 20:00:40.162000-06:00,2020-03-03 20:00
1583287240213.0,3.7016492,-5.302243700000001,7.364784200000001,2020-03-03 20:00:40.213000-06:00,2020-03-03 20:00
1583287240262.0,3.7804961,-5.4356914000000005,7.2522273,2020-03-03 20:00:40.262000-06:00,2020-03-03 20:00
1583287240312.0,3.7748047999999996,-5.4456906,7.2927284,2020-03-03 20:00:40.312000-06:00,2020-03-03 20:00
1583287240362.0,3.7280292999999998,-5.3311806,7.360364,2020-03-03 20:00:40.362000-06:00,2020-03-03 20:00
1583287240412.0,3.6766612999999997,-5.42807,7.334949000000001,2020-03-03 20:00:40.412000-06:00,2020-03-03 20:00
1583287240462.0,3.6934400000000003,-5.3103886,7.458048299999999,2020-03-03 20:00:40.462000-06:00,2020-03-03 20:00
1583287240513.0,3.81604,-5.2145980000000005,7.390797599999999,2020-03-03 20:00:40.513000-06:00,2020-03-03 20:00
1583287240563.0,3.9042277000000003,-5.1955849999999995,7.3438025,2020-03-03 20:00:40.563000-06:00,2020-03-03 20:00
1583287240612.0,3.8106906000000005,-5.4513636,7.326492999999999,2020-03-03 20:00:40.612000-06:00,2020-03-03 20:00
1583287240662.0,3.6513667,-5.528306,7.2675686,2020-03-03 20:00:40.662000-06:00,2020-03-03 20:00
1583287240712.0,3.5977886,-5.5768260000000005,7.2183075,2020-03-03 20:00:40.712000-06:00,2020-03-03 20:00
1583287240762.0,3.5774567000000004,-5.6564717,7.237234,2020-03-03 20:00:40.762000-06:00,2020-03-03 20:00
1583287240813.0,3.4816504,-5.787218,7.205758,2020-03-03 20:00:40.813000-06:00,2020-03-03 20:00
1583287240862.0,3.262474,-5.8508925000000005,7.0892587,2020-03-03 20:00:40.862000-06:00,2020-03-03 20:00
1583287240912.0,3.2279568,-5.9124574999999995,7.1377783,2020-03-03 20:00:40.912000-06:00,2020-03-03 20:00
1583287240962.0,3.3308082000000003,-5.8125052,7.210402,2020-03-03 20:00:40.962000-06:00,2020-03-03 20:00
1583287241013.0,3.339235,-5.753034599999999,7.1398716,2020-03-03 20:00:41.013000-06:00,2020-03-03 20:00
1583287241062.0,3.3693266000000004,-5.787185,7.202819,2020-03-03 20:00:41.062000-06:00,2020-03-03 20:00
1583287241112.0,3.4091418,-5.772272599999999,7.2351804,2020-03-03 20:00:41.112000-06:00,2020-03-03 20:00
1583287241162.0,3.3797028,-5.6871753,7.1935199999999995,2020-03-03 20:00:41.162000-06:00,2020-03-03 20:00
1583287241213.0,3.3537724,-5.6603885,7.215018700000001,2020-03-03 20:00:41.213000-06:00,2020-03-03 20:00
1583287241262.0,3.3414660000000005,-5.701379,7.289409599999999,2020-03-03 20:00:41.262000-06:00,2020-03-03 20:00
1583287241312.0,3.3392236000000004,-5.733752,7.255098299999999,2020-03-03 20:00:41.312000-06:00,2020-03-03 20:00
1583287241362.0,3.2650468,-5.864332,7.1031704,2020-03-03 20:00:41.362000-06:00,2020-03-03 20:00
1583287241412.0,3.0903058,-5.990697,7.0762157000000006,2020-03-03 20:00:41.412000-06:00,2020-03-03 20:00
1583287241462.0,3.0255096000000004,-6.0493155,7.100039,2020-03-03 20:00:41.462000-06:00,2020-03-03 20:00
1583287241512.0,2.9598749,-5.9806905,7.0561357000000005,2020-03-03 20:00:41.512000-06:00,2020-03-03 20:00
1583287241563.0,3.0037599,-6.0395900000000005,7.01455,2020-03-03 20:00:41.563000-06:00,2020-03-03 20:00
1583287241613.0,3.073468,-5.942578299999999,7.019121000000001,2020-03-03 20:00:41.613000-06:00,2020-03-03 20:00
1583287241663.0,3.6399527000000003,-5.387782,6.4483084999999996,2020-03-03 20:00:41.663000-06:00,2020-03-03 20:00
1583287241712.0,4.1866837,-5.858485,8.148779,2020-03-03 20:00:41.712000-06:00,2020-03-03 20:00
1583287241763.0,2.5575628,-5.976183,7.430186999999999,2020-03-03 20:00:41.763000-06:00,2020-03-03 20:00
1583287241812.0,2.6261888,-5.020552599999999,6.9520106,2020-03-03 20:00:41.812000-06:00,2020-03-03 20:00
1583287241862.0,3.735815,-5.110244799999999,7.830074000000001,2020-03-03 20:00:41.862000-06:00,2020-03-03 20:00
1583287241912.0,3.7281551,-4.586166,8.2085285,2020-03-03 20:00:41.912000-06:00,2020-03-03 20:00
1583287241963.0,3.6434703,-4.7840242,7.7371035,2020-03-03 20:00:41.963000-06:00,2020-03-03 20:00
1583287242012.0,3.5919166,-4.5538300000000005,8.217732,2020-03-03 20:00:42.012000-06:00,2020-03-03 20:00
1583287242062.0,3.5739987,-3.5235347999999997,8.687698,2020-03-03 20:00:42.062000-06:00,2020-03-03 20:00
1583287242112.0,3.9250510000000003,-3.7013087,8.283882,2020-03-03 20:00:42.112000-06:00,2020-03-03 20:00
1583287242162.0,4.18255,-3.4563093,8.607439999999999,2020-03-03 20:00:42.162000-06:00,2020-03-03 20:00
1583287242212.0,4.1589065000000005,-2.9505615,8.936196,2020-03-03 20:00:42.212000-06:00,2020-03-03 20:00
1583287242263.0,4.041613,-2.8061783,8.500394,2020-03-03 20:00:42.263000-06:00,2020-03-03 20:00
1583287242312.0,3.9422347999999996,-3.1583784,8.460459,2020-03-03 20:00:42.312000-06:00,2020-03-03 20:00
1583287242362.0,3.7573532999999997,-2.7967782000000003,8.304037,2020-03-03 20:00:42.362000-06:00,2020-03-03 20:00
1583287242412.0,3.6376510000000004,-2.2360882999999996,8.402560000000001,2020-03-03 20:00:42.412000-06:00,2020-03-03 20:00
1583287242462.0,3.8044817,-2.6868086,8.506872999999999,2020-03-03 20:00:42.462000-06:00,2020-03-03 20:00
1583287242512.0,4.0405169999999995,-3.070224,8.419911,2020-03-03 20:00:42.512000-06:00,2020-03-03 20:00
1583287242563.0,4.05586,-3.3678873,8.377107,2020-03-03 20:00:42.563000-06:00,2020-03-03 20:00
1583287242613.0,4.008462000000001,-3.7529562000000007,8.107061,2020-03-03 20:00:42.613000-06:00,2020-03-03 20:00
1583287242662.0,4.1806355,-3.8612015,8.20836,2020-03-03 20:00:42.662000-06:00,2020-03-03 20:00
1583287242712.0,4.4525255999999995,-4.34123,8.229611,2020-03-03 20:00:42.712000-06:00,2020-03-03 20:00
1583287242762.0,4.5820574999999995,-4.424062999999999,8.317217,2020-03-03 20:00:42.762000-06:00,2020-03-03 20:00
1583287242813.0,4.9145327000000005,-3.7483153,8.392531,2020-03-03 20:00:42.813000-06:00,2020-03-03 20:00
1583287242862.0,5.256244000000001,-3.1733293999999996,8.614158,2020-03-03 20:00:42.862000-06:00,2020-03-03 20:00
1583287242913.0,5.5460199999999995,-2.5280602,8.995992,2020-03-03 20:00:42.913000-06:00,2020-03-03 20:00
1583287242962.0,5.5213785,-2.1260695,8.977585000000001,2020-03-03 20:00:42.962000-06:00,2020-03-03 20:00
1583287243013.0,4.6767335,-1.6341976999999999,8.105343,2020-03-03 20:00:43.013000-06:00,2020-03-03 20:00
1583287243063.0,3.6029443999999997,-3.5526843,7.8483963,2020-03-03 20:00:43.063000-06:00,2020-03-03 20:00
1583287243112.0,3.7219577000000004,-2.3719973999999997,7.963317,2020-03-03 20:00:43.112000-06:00,2020-03-03 20:00
1583287243163.0,4.673519000000001,-1.4921882,7.771531599999999,2020-03-03 20:00:43.163000-06:00,2020-03-03 20:00
1583287243212.0,5.589411699999999,-3.1728575,7.843672,2020-03-03 20:00:43.212000-06:00,2020-03-03 20:00
1583287243262.0,5.3026795,-2.6292806,7.7656565,2020-03-03 20:00:43.262000-06:00,2020-03-03 20:00
1583287243312.0,5.002364,-2.913852,8.562235000000001,2020-03-03 20:00:43.312000-06:00,2020-03-03 20:00
1583287243363.0,4.995255,-2.339445,8.592791,2020-03-03 20:00:43.363000-06:00,2020-03-03 20:00
1583287243412.0,4.950568,-2.103104,8.456327,2020-03-03 20:00:43.412000-06:00,2020-03-03 20:00
1583287243463.0,4.6705966,-3.053892,8.57426,2020-03-03 20:00:43.463000-06:00,2020-03-03 20:00
1583287243512.0,4.282301,-4.1763580000000005,7.7150490000000005,2020-03-03 20:00:43.512000-06:00,2020-03-03 20:00
1583287243563.0,3.7356879999999997,-4.774642,6.3694854,2020-03-03 20:00:43.563000-06:00,2020-03-03 20:00
1583287243612.0,4.281389,-5.478735400000001,8.044563,2020-03-03 20:00:43.612000-06:00,2020-03-03 20:00
1583287243663.0,4.6418175999999995,-3.7035217000000005,8.441105,2020-03-03 20:00:43.663000-06:00,2020-03-03 20:00
1583287243712.0,4.35174,-3.1209526000000003,7.3307020000000005,2020-03-03 20:00:43.712000-06:00,2020-03-03 20:00
1583287243762.0,4.570421700000001,-4.2083473,7.955647,2020-03-03 20:00:43.762000-06:00,2020-03-03 20:00
1583287243813.0,4.537051,-3.8921242,8.044937,2020-03-03 20:00:43.813000-06:00,2020-03-03 20:00
1583287243862.0,4.251298,-3.8014428999999996,7.8014383,2020-03-03 20:00:43.862000-06:00,2020-03-03 20:00
1583287243913.0,4.3290453,-4.1207747,8.220450999999999,2020-03-03 20:00:43.913000-06:00,2020-03-03 20:00
1583287243962.0,4.352732,-3.9266693999999998,8.153383,2020-03-03 20:00:43.962000-06:00,2020-03-03 20:00
1583287244013.0,4.3605947,-4.1746235,8.124842,2020-03-03 20:00:44.013000-06:00,2020-03-03 20:00
1583287244062.0,4.152659,-3.334401,8.287395,2020-03-03 20:00:44.062000-06:00,2020-03-03 20:00
1583287244112.0,3.9897940000000003,-2.6045997000000005,8.234712,2020-03-03 20:00:44.112000-06:00,2020-03-03 20:00
1583287244162.0,4.0390596,-2.9497299999999997,8.046384,2020-03-03 20:00:44.162000-06:00,2020-03-03 20:00
1583287244212.0,4.120123,-3.0752451,8.325184,2020-03-03 20:00:44.212000-06:00,2020-03-03 20:00
1583287244263.0,4.501482,-3.7525699999999995,8.892532000000001,2020-03-03 20:00:44.263000-06:00,2020-03-03 20:00
1583287244313.0,4.573708,-3.4351754,8.458242,2020-03-03 20:00:44.313000-06:00,2020-03-03 20:00
1583287244363.0,4.4404235,-3.0337857999999995,8.124731,2020-03-03 20:00:44.363000-06:00,2020-03-03 20:00
1583287244412.0,4.4276114,-3.2943652,8.3705845,2020-03-03 20:00:44.412000-06:00,2020-03-03 20:00
1583287244463.0,4.4159513,-3.4748273000000003,8.144335,2020-03-03 20:00:44.463000-06:00,2020-03-03 20:00
1583287244513.0,4.550969,-3.2720358,8.252075,2020-03-03 20:00:44.513000-06:00,2020-03-03 20:00
1583287244563.0,4.5814614,-3.2110589,8.337576,2020-03-03 20:00:44.563000-06:00,2020-03-03 20:00
1583287244612.0,4.6311545,-3.3441494,8.096358,2020-03-03 20:00:44.612000-06:00,2020-03-03 20:00
1583287244662.0,4.60848,-3.4101827000000005,8.135288000000001,2020-03-03 20:00:44.662000-06:00,2020-03-03 20:00
1583287244712.0,4.5536027,-3.3718078,8.142918,2020-03-03 20:00:44.712000-06:00,2020-03-03 20:00
1583287244762.0,4.527459599999999,-3.413621,8.089656,2020-03-03 20:00:44.762000-06:00,2020-03-03 20:00
1583287244812.0,4.509348999999999,-3.47267,8.060495,2020-03-03 20:00:44.812000-06:00,2020-03-03 20:00
1583287244862.0,4.5618405,-3.3881192,8.17013,2020-03-03 20:00:44.862000-06:00,2020-03-03 20:00
1583287244913.0,4.587460500000001,-3.3961008,8.1156845,2020-03-03 20:00:44.913000-06:00,2020-03-03 20:00
1583287244963.0,4.566158000000001,-3.4479175000000004,8.087686999999999,2020-03-03 20:00:44.963000-06:00,2020-03-03 20:00
1583287245013.0,4.570256,-3.3993285,8.090334,2020-03-03 20:00:45.013000-06:00,2020-03-03 20:00
1583287245063.0,4.626737599999999,-3.2441932999999996,8.250778,2020-03-03 20:00:45.063000-06:00,2020-03-03 20:00
1583287245112.0,4.559863,-3.3136574999999997,8.2241125,2020-03-03 20:00:45.112000-06:00,2020-03-03 20:00
1583287245162.0,4.588162400000001,-3.2356875,8.16657,2020-03-03 20:00:45.162000-06:00,2020-03-03 20:00
1583287245212.0,4.5868797,-3.2854997999999997,8.146637,2020-03-03 20:00:45.212000-06:00,2020-03-03 20:00
1583287245263.0,4.5659833,-3.2945547,8.262534,2020-03-03 20:00:45.263000-06:00,2020-03-03 20:00
1583287245312.0,4.5407233,-3.3105532999999996,8.193719,2020-03-03 20:00:45.312000-06:00,2020-03-03 20:00
1583287245362.0,4.674713,-3.2783089,8.154266999999999,2020-03-03 20:00:45.362000-06:00,2020-03-03 20:00
1583287245412.0,4.6278086,-3.2840464,8.127708,2020-03-03 20:00:45.412000-06:00,2020-03-03 20:00
1583287245462.0,4.572336,-3.3332824999999997,8.135655,2020-03-03 20:00:45.462000-06:00,2020-03-03 20:00
1583287245513.0,4.6034255,-3.3765678,8.140416,2020-03-03 20:00:45.513000-06:00,2020-03-03 20:00
1583287245562.0,4.6183934,-3.2532532,8.127704,2020-03-03 20:00:45.562000-06:00,2020-03-03 20:00
1583287245612.0,4.606688,-3.3572812000000005,8.14673,2020-03-03 20:00:45.612000-06:00,2020-03-03 20:00
1583287245663.0,4.639385,-3.3594887000000004,8.1643305,2020-03-03 20:00:45.663000-06:00,2020-03-03 20:00
1583287245713.0,4.6290073,-3.3207410000000004,8.115314999999999,2020-03-03 20:00:45.713000-06:00,2020-03-03 20:00
1583287245762.0,4.624495,-3.2591588,8.210109,2020-03-03 20:00:45.762000-06:00,2020-03-03 20:00
1583287245812.0,4.6425595,-3.280179,8.155252,2020-03-03 20:00:45.812000-06:00,2020-03-03 20:00
1583287245862.0,4.6722383,-3.2747097000000003,8.148896,2020-03-03 20:00:45.862000-06:00,2020-03-03 20:00
1583287245912.0,4.6149373,-3.2839136,8.141002,2020-03-03 20:00:45.912000-06:00,2020-03-03 20:00
1583287245962.0,4.612686599999999,-3.2771637000000005,8.177171000000001,2020-03-03 20:00:45.962000-06:00,2020-03-03 20:00
1583287246012.0,4.6754184,-3.3233716,8.147972,2020-03-03 20:00:46.012000-06:00,2020-03-03 20:00
1583287246062.0,4.6288567,-3.2717788,8.142941,2020-03-03 20:00:46.062000-06:00,2020-03-03 20:00
1583287246113.0,4.6333814,-3.2576478,8.159977,2020-03-03 20:00:46.113000-06:00,2020-03-03 20:00
1583287246162.0,4.6167803,-3.2504177000000003,8.166122,2020-03-03 20:00:46.162000-06:00,2020-03-03 20:00
1583287246213.0,4.6167739999999995,-3.2864587,8.158915499999999,2020-03-03 20:00:46.213000-06:00,2020-03-03 20:00
1583287246263.0,4.613096,-3.3080919,8.13906,2020-03-03 20:00:46.263000-06:00,2020-03-03 20:00
1583287246313.0,4.636457,-3.2771971,8.15052,2020-03-03 20:00:46.313000-06:00,2020-03-03 20:00
1583287246362.0,4.693701,-3.3157017,8.145008,2020-03-03 20:00:46.362000-06:00,2020-03-03 20:00
1583287246412.0,4.6483419999999995,-3.2943589999999996,8.150971,2020-03-03 20:00:46.412000-06:00,2020-03-03 20:00
1583287246463.0,4.6221037,-3.2939769999999995,8.146511,2020-03-03 20:00:46.463000-06:00,2020-03-03 20:00
1583287246513.0,4.648524299999999,-3.2839422,8.159809,2020-03-03 20:00:46.513000-06:00,2020-03-03 20:00
1583287246563.0,4.6832400000000005,-3.278596,8.137176,2020-03-03 20:00:46.563000-06:00,2020-03-03 20:00
1583287246612.0,4.6714616,-3.2844613,8.110807000000001,2020-03-03 20:00:46.612000-06:00,2020-03-03 20:00
1583287246662.0,4.589275,-3.3137242999999996,8.182392,2020-03-03 20:00:46.662000-06:00,2020-03-03 20:00
1583287246713.0,4.5943713,-3.2843049,8.162155,2020-03-03 20:00:46.713000-06:00,2020-03-03 20:00
1583287246763.0,4.7096167,-3.3224440000000004,8.103516,2020-03-03 20:00:46.763000-06:00,2020-03-03 20:00
1583287246813.0,4.671897,-3.3678071000000003,8.137055,2020-03-03 20:00:46.813000-06:00,2020-03-03 20:00
1583287246862.0,4.619640400000001,-3.3129129999999996,8.128046000000001,2020-03-03 20:00:46.862000-06:00,2020-03-03 20:00
1583287246913.0,4.656288,-3.3093245000000002,8.13305,2020-03-03 20:00:46.913000-06:00,2020-03-03 20:00
1583287246963.0,4.6659427,-3.340901,8.11576,2020-03-03 20:00:46.963000-06:00,2020-03-03 20:00
1583287247012.0,4.615944,-3.3758888,8.108753,2020-03-03 20:00:47.012000-06:00,2020-03-03 20:00
1583287247063.0,4.658087999999999,-3.364731,8.129183,2020-03-03 20:00:47.063000-06:00,2020-03-03 20:00
1583287247112.0,4.6831074,-3.341074,8.09574,2020-03-03 20:00:47.112000-06:00,2020-03-03 20:00
1583287247162.0,4.6253386,-3.375576,8.120645,2020-03-03 20:00:47.162000-06:00,2020-03-03 20:00
1583287247213.0,4.629651,-3.3884163,8.128103,2020-03-03 20:00:47.213000-06:00,2020-03-03 20:00
1583287247263.0,4.689709,-3.3874779000000004,8.082499,2020-03-03 20:00:47.263000-06:00,2020-03-03 20:00
1583287247313.0,4.6300774,-3.3453736000000003,8.111439,2020-03-03 20:00:47.313000-06:00,2020-03-03 20:00
1583287247362.0,4.578226,-3.3902639999999997,8.150641,2020-03-03 20:00:47.362000-06:00,2020-03-03 20:00
1583287247412.0,4.675449400000001,-3.3996297999999996,8.090850999999999,2020-03-03 20:00:47.412000-06:00,2020-03-03 20:00
1583287247463.0,4.673262599999999,-3.4005932999999997,8.089974,2020-03-03 20:00:47.463000-06:00,2020-03-03 20:00
1583287247512.0,4.617191,-3.3963949999999996,8.11722,2020-03-03 20:00:47.512000-06:00,2020-03-03 20:00
1583287247563.0,4.610011,-3.424843,8.111981,2020-03-03 20:00:47.563000-06:00,2020-03-03 20:00
1583287247612.0,4.622368,-3.394707,8.084955,2020-03-03 20:00:47.612000-06:00,2020-03-03 20:00
1583287247663.0,4.6679316,-3.3864403,8.088513,2020-03-03 20:00:47.663000-06:00,2020-03-03 20:00
1583287247713.0,4.6176734,-3.4108953,8.129621,2020-03-03 20:00:47.713000-06:00,2020-03-03 20:00
1583287247762.0,4.5898027,-3.3980305,8.102592999999999,2020-03-03 20:00:47.762000-06:00,2020-03-03 20:00
1583287247813.0,4.649112000000001,-3.3826258,8.098658,2020-03-03 20:00:47.813000-06:00,2020-03-03 20:00
1583287247862.0,4.6781955,-3.3651695,8.153316499999999,2020-03-03 20:00:47.862000-06:00,2020-03-03 20:00
1583287247913.0,4.657177,-3.3835251000000004,8.091501,2020-03-03 20:00:47.913000-06:00,2020-03-03 20:00
1583287247963.0,4.620933999999999,-3.3715135999999997,8.112977,2020-03-03 20:00:47.963000-06:00,2020-03-03 20:00
1583287248012.0,4.6494074,-3.371485,8.107107000000001,2020-03-03 20:00:48.012000-06:00,2020-03-03 20:00
1583287248062.0,4.670995,-3.3687476999999997,8.098803,2020-03-03 20:00:48.062000-06:00,2020-03-03 20:00
1583287248113.0,4.6297,-3.3629198,8.127229,2020-03-03 20:00:48.113000-06:00,2020-03-03 20:00
1583287248162.0,4.641496,-3.3407546999999997,8.126731,2020-03-03 20:00:48.162000-06:00,2020-03-03 20:00
1583287248213.0,4.645681400000001,-3.3211927000000006,8.114785000000001,2020-03-03 20:00:48.213000-06:00,2020-03-03 20:00
1583287248262.0,4.6666927000000005,-3.364502,8.127221,2020-03-03 20:00:48.262000-06:00,2020-03-03 20:00
1583287248313.0,4.6512666,-3.3657540999999997,8.104053,2020-03-03 20:00:48.313000-06:00,2020-03-03 20:00
1583287248363.0,4.651777,-3.3419578000000003,8.1228075,2020-03-03 20:00:48.363000-06:00,2020-03-03 20:00
1583287248413.0,4.6583853,-3.3153464999999995,8.118145,2020-03-03 20:00:48.413000-06:00,2020-03-03 20:00
1583287248463.0,4.6616197,-3.3539565000000002,8.148802,2020-03-03 20:00:48.463000-06:00,2020-03-03 20:00
1583287248513.0,4.641106,-3.3275553999999996,8.107365,2020-03-03 20:00:48.513000-06:00,2020-03-03 20:00
1583287248562.0,4.5668426,-3.329561,8.151311,2020-03-03 20:00:48.562000-06:00,2020-03-03 20:00
1583287248612.0,4.649826,-3.3520265,8.136682,2020-03-03 20:00:48.612000-06:00,2020-03-03 20:00
1583287248662.0,4.690468,-3.3874307,8.087512,2020-03-03 20:00:48.662000-06:00,2020-03-03 20:00
1583287248713.0,4.6184535,-3.3459055,8.148971000000001,2020-03-03 20:00:48.713000-06:00,2020-03-03 20:00
1583287248763.0,4.6284019999999995,-3.3367145,8.129712,2020-03-03 20:00:48.763000-06:00,2020-03-03 20:00
1583287248813.0,4.642602,-3.3271656000000003,8.14827,2020-03-03 20:00:48.813000-06:00,2020-03-03 20:00
1583287248862.0,4.627683599999999,-3.3586117999999994,8.132571,2020-03-03 20:00:48.862000-06:00,2020-03-03 20:00
1583287248913.0,4.653253,-3.3624976,8.109712,2020-03-03 20:00:48.913000-06:00,2020-03-03 20:00
1583287248963.0,4.6412416,-3.32743,8.137511,2020-03-03 20:00:48.963000-06:00,2020-03-03 20:00
1583287249013.0,4.637594,-3.3565543,8.165141,2020-03-03 20:00:49.013000-06:00,2020-03-03 20:00
1583287249063.0,4.597707,-3.343211,8.124442,2020-03-03 20:00:49.063000-06:00,2020-03-03 20:00
1583287249113.0,4.625559,-3.3181758,8.126988,2020-03-03 20:00:49.113000-06:00,2020-03-03 20:00
1583287249163.0,4.6772237,-3.3265896,8.108492,2020-03-03 20:00:49.163000-06:00,2020-03-03 20:00
1583287249213.0,4.60649,-3.3213174,8.132016,2020-03-03 20:00:49.213000-06:00,2020-03-03 20:00
1583287249262.0,4.5851703,-3.3378954,8.183097,2020-03-03 20:00:49.262000-06:00,2020-03-03 20:00
1583287249312.0,4.6756473,-3.3539163999999997,8.100031,2020-03-03 20:00:49.312000-06:00,2020-03-03 20:00
1583287249363.0,4.648624,-3.3396924,8.139859,2020-03-03 20:00:49.363000-06:00,2020-03-03 20:00
1583287249412.0,4.6301165,-3.3370972,8.133054,2020-03-03 20:00:49.412000-06:00,2020-03-03 20:00
1583287249463.0,4.645131,-3.33218,8.142757000000001,2020-03-03 20:00:49.463000-06:00,2020-03-03 20:00
1583287249512.0,4.6439047,-3.3223796,8.138292999999999,2020-03-03 20:00:49.512000-06:00,2020-03-03 20:00
1583287249562.0,4.6280465,-3.3494134,8.1266985,2020-03-03 20:00:49.562000-06:00,2020-03-03 20:00
1583287249612.0,4.6150093,-3.3327317,8.152161,2020-03-03 20:00:49.612000-06:00,2020-03-03 20:00
1583287249663.0,4.6944346,-3.3812516,8.136611,2020-03-03 20:00:49.663000-06:00,2020-03-03 20:00
1583287249713.0,4.630067299999999,-3.3200355000000004,8.08925,2020-03-03 20:00:49.713000-06:00,2020-03-03 20:00
1583287249762.0,4.5833178,-3.3487735,8.174398,2020-03-03 20:00:49.762000-06:00,2020-03-03 20:00
1583287249812.0,4.6389937,-3.3677050000000004,8.108033,2020-03-03 20:00:49.812000-06:00,2020-03-03 20:00
1583287249862.0,4.698103400000001,-3.339238,8.114526,2020-03-03 20:00:49.862000-06:00,2020-03-03 20:00
1583287249912.0,4.614928,-3.3212337,8.1248,2020-03-03 20:00:49.912000-06:00,2020-03-03 20:00
1583287249962.0,4.613389,-3.3739314,8.125313,2020-03-03 20:00:49.962000-06:00,2020-03-03 20:00
1583287250013.0,4.614711,-3.1692262,8.235035,2020-03-03 20:00:50.013000-06:00,2020-03-03 20:00
1583287250062.0,4.571336,-2.2235737,8.885045,2020-03-03 20:00:50.062000-06:00,2020-03-03 20:00
1583287250113.0,5.058756400000001,-3.1240040000000002,8.751435,2020-03-03 20:00:50.113000-06:00,2020-03-03 20:00
1583287250163.0,5.0592456,-3.0278144,8.789166999999999,2020-03-03 20:00:50.163000-06:00,2020-03-03 20:00
1583287250213.0,4.841436,-3.8766482000000004,8.182836,2020-03-03 20:00:50.213000-06:00,2020-03-03 20:00
1583287250263.0,4.698151,-5.116689,7.676856,2020-03-03 20:00:50.263000-06:00,2020-03-03 20:00
1583287250312.0,5.9944477,-3.0563529,9.574334,2020-03-03 20:00:50.312000-06:00,2020-03-03 20:00
1583287250362.0,7.802949000000001,-4.0909767,9.525461,2020-03-03 20:00:50.362000-06:00,2020-03-03 20:00
1583287250412.0,7.1426476999999995,-6.287512,6.7830105,2020-03-03 20:00:50.412000-06:00,2020-03-03 20:00
1583287250463.0,5.432576,-6.9934616,2.2956543,2020-03-03 20:00:50.463000-06:00,2020-03-03 20:00
1583287250512.0,3.9973912000000005,-7.4784107,-0.11611411,2020-03-03 20:00:50.512000-06:00,2020-03-03 20:00
1583287250562.0,4.0710626,-5.7298317,-0.27954164,2020-03-03 20:00:50.562000-06:00,2020-03-03 20:00
1583287250612.0,5.8924704000000006,-6.5907803,-1.1445063,2020-03-03 20:00:50.612000-06:00,2020-03-03 20:00
1583287250663.0,6.6155005000000005,-7.0719337,-1.6298385,2020-03-03 20:00:50.663000-06:00,2020-03-03 20:00
1583287250712.0,6.979423,-7.1034679999999994,-2.4780416,2020-03-03 20:00:50.712000-06:00,2020-03-03 20:00
1583287250763.0,7.4887752999999995,-7.454476400000001,-1.9209064999999999,2020-03-03 20:00:50.763000-06:00,2020-03-03 20:00
1583287250812.0,7.503943400000001,-7.622281,-2.0171325,2020-03-03 20:00:50.812000-06:00,2020-03-03 20:00
1583287250863.0,7.785410000000001,-7.795914,-1.3585496000000001,2020-03-03 20:00:50.863000-06:00,2020-03-03 20:00
1583287250913.0,7.628744599999999,-8.050635,-1.2510638,2020-03-03 20:00:50.913000-06:00,2020-03-03 20:00
1583287250963.0,7.7731580000000005,-8.464034,-0.703228,2020-03-03 20:00:50.963000-06:00,2020-03-03 20:00
1583287251012.0,7.858714999999999,-8.775912,-0.945134,2020-03-03 20:00:51.012000-06:00,2020-03-03 20:00
1583287251062.0,7.9008636,-8.597896,-0.754323,2020-03-03 20:00:51.062000-06:00,2020-03-03 20:00
1583287251113.0,7.5526137,-8.12717,-0.7689545999999999,2020-03-03 20:00:51.113000-06:00,2020-03-03 20:00
1583287251163.0,7.443086999999999,-7.837318400000001,-0.7481699,2020-03-03 20:00:51.163000-06:00,2020-03-03 20:00
1583287251213.0,7.4493089999999995,-7.345871400000001,-0.40959626,2020-03-03 20:00:51.213000-06:00,2020-03-03 20:00
1583287251263.0,7.729225,-6.780342999999999,-0.14403854,2020-03-03 20:00:51.263000-06:00,2020-03-03 20:00
1583287251312.0,7.5759006,-6.520827,0.21033669,2020-03-03 20:00:51.312000-06:00,2020-03-03 20:00
1583287251363.0,7.3895965,-6.1814694,0.48664594,2020-03-03 20:00:51.363000-06:00,2020-03-03 20:00
1583287251413.0,7.2182713000000005,-6.090427,0.5306628000000001,2020-03-03 20:00:51.413000-06:00,2020-03-03 20:00
1583287251462.0,7.185510000000001,-6.0348505999999995,0.81754756,2020-03-03 20:00:51.462000-06:00,2020-03-03 20:00
1583287251512.0,7.2034254,-5.937885,0.8995865,2020-03-03 20:00:51.512000-06:00,2020-03-03 20:00
1583287251563.0,7.145258,-6.0333122999999995,1.1447450000000001,2020-03-03 20:00:51.563000-06:00,2020-03-03 20:00
1583287251613.0,7.1233954,-6.097477,1.2331711,2020-03-03 20:00:51.613000-06:00,2020-03-03 20:00
1583287251663.0,7.158608,-6.34893,1.3051478,2020-03-03 20:00:51.663000-06:00,2020-03-03 20:00
1583287251712.0,7.0688130000000005,-6.47176,1.3104075000000002,2020-03-03 20:00:51.712000-06:00,2020-03-03 20:00
1583287251763.0,7.058091,-6.681454,1.143008,2020-03-03 20:00:51.763000-06:00,2020-03-03 20:00
1583287251812.0,7.1089125,-6.69724,0.9803596,2020-03-03 20:00:51.812000-06:00,2020-03-03 20:00
1583287251863.0,7.1830587,-6.601955,0.8863652,2020-03-03 20:00:51.863000-06:00,2020-03-03 20:00
1583287251913.0,7.134612599999999,-6.5627002999999995,0.8121149999999999,2020-03-03 20:00:51.913000-06:00,2020-03-03 20:00
1583287251962.0,7.203325,-6.510066,0.7539963000000001,2020-03-03 20:00:51.962000-06:00,2020-03-03 20:00
1583287252012.0,7.271559,-6.4025273,0.74907553,2020-03-03 20:00:52.012000-06:00,2020-03-03 20:00
1583287252062.0,7.1856694,-6.3510480000000005,0.77581406,2020-03-03 20:00:52.062000-06:00,2020-03-03 20:00
1583287252113.0,7.3125663,-6.351241,0.89535815,2020-03-03 20:00:52.113000-06:00,2020-03-03 20:00
1583287252162.0,7.324480499999999,-6.408461,0.9735942,2020-03-03 20:00:52.162000-06:00,2020-03-03 20:00
1583287252212.0,7.424853999999999,-6.5719132,1.0140568,2020-03-03 20:00:52.212000-06:00,2020-03-03 20:00
1583287252263.0,7.4899664,-6.516608,0.99642843,2020-03-03 20:00:52.263000-06:00,2020-03-03 20:00
1583287252313.0,7.537114,-6.495591,0.78875804,2020-03-03 20:00:52.313000-06:00,2020-03-03 20:00
1583287252363.0,7.5062156,-6.23541,0.6668115,2020-03-03 20:00:52.363000-06:00,2020-03-03 20:00
1583287252413.0,7.497269599999999,-5.9878955000000005,0.7369621000000001,2020-03-03 20:00:52.413000-06:00,2020-03-03 20:00
1583287252462.0,7.609961,-5.7669735,1.1060126000000001,2020-03-03 20:00:52.462000-06:00,2020-03-03 20:00
1583287252512.0,7.5948863,-5.812106,1.0010747,2020-03-03 20:00:52.512000-06:00,2020-03-03 20:00
1583287252563.0,7.7331963,-5.857941599999999,1.0532995,2020-03-03 20:00:52.563000-06:00,2020-03-03 20:00
1583287252613.0,7.8309083,-5.943333999999999,1.1048735,2020-03-03 20:00:52.613000-06:00,2020-03-03 20:00
1583287252662.0,7.7895474,-5.867635,1.1088871,2020-03-03 20:00:52.662000-06:00,2020-03-03 20:00
1583287252713.0,7.9136224,-6.1319165,1.2334408000000001,2020-03-03 20:00:52.713000-06:00,2020-03-03 20:00
1583287252763.0,8.013485000000001,-6.0730934,1.2583866000000001,2020-03-03 20:00:52.763000-06:00,2020-03-03 20:00
1583287252812.0,8.068035,-5.756465,1.164117,2020-03-03 20:00:52.812000-06:00,2020-03-03 20:00
1583287252862.0,7.845047500000001,-5.5216346,0.9995075000000001,2020-03-03 20:00:52.862000-06:00,2020-03-03 20:00
1583287252912.0,7.914558,-5.097593,0.75446135,2020-03-03 20:00:52.912000-06:00,2020-03-03 20:00
1583287252963.0,8.171189,-4.689332,0.96867234,2020-03-03 20:00:52.963000-06:00,2020-03-03 20:00
1583287253013.0,8.032058000000001,-4.3381834,0.65023327,2020-03-03 20:00:53.013000-06:00,2020-03-03 20:00
1583287253063.0,8.4877405,-4.0990644,1.0494508,2020-03-03 20:00:53.063000-06:00,2020-03-03 20:00
1583287253112.0,8.582851,-3.609532,1.207354,2020-03-03 20:00:53.112000-06:00,2020-03-03 20:00
1583287253163.0,8.938224,-3.77368,1.2186417999999999,2020-03-03 20:00:53.163000-06:00,2020-03-03 20:00
1583287253213.0,9.160687,-4.016021299999999,1.1609329,2020-03-03 20:00:53.213000-06:00,2020-03-03 20:00
1583287253262.0,9.350146,-4.488654,1.0927111,2020-03-03 20:00:53.262000-06:00,2020-03-03 20:00
1583287253312.0,9.356778,-4.0065894,0.4780031,2020-03-03 20:00:53.312000-06:00,2020-03-03 20:00
1583287253362.0,9.544271,-4.1626453,0.5261892,2020-03-03 20:00:53.362000-06:00,2020-03-03 20:00
1583287253412.0,9.906922,-2.88105,0.35846877,2020-03-03 20:00:53.412000-06:00,2020-03-03 20:00
1583287253463.0,10.66478,-3.0918581,1.1114671,2020-03-03 20:00:53.463000-06:00,2020-03-03 20:00
1583287253513.0,10.491828,-2.9039588,2.0065196,2020-03-03 20:00:53.513000-06:00,2020-03-03 20:00
1583287253562.0,10.617878999999999,-2.273022,2.646179,2020-03-03 20:00:53.562000-06:00,2020-03-03 20:00
1583287253612.0,10.324897,-1.822082,3.3075159,2020-03-03 20:00:53.612000-06:00,2020-03-03 20:00
1583287253663.0,9.537747,-1.4571196000000002,2.0046966,2020-03-03 20:00:53.663000-06:00,2020-03-03 20:00
1583287253713.0,9.982178,-2.4447026000000003,2.175509,2020-03-03 20:00:53.713000-06:00,2020-03-03 20:00
1583287253763.0,9.508216000000001,-2.0250592,1.6039331000000001,2020-03-03 20:00:53.763000-06:00,2020-03-03 20:00
1583287253813.0,9.93909,-2.428087,2.0241973,2020-03-03 20:00:53.813000-06:00,2020-03-03 20:00
1583287253862.0,9.568953,-1.2518056999999998,2.2528194999999998,2020-03-03 20:00:53.862000-06:00,2020-03-03 20:00
1583287253913.0,9.268514,-1.7050095,1.7585819,2020-03-03 20:00:53.913000-06:00,2020-03-03 20:00
1583287253963.0,9.40705,-2.927084,1.2940729,2020-03-03 20:00:53.963000-06:00,2020-03-03 20:00
1583287254012.0,9.378313,-3.347618,1.922954,2020-03-03 20:00:54.012000-06:00,2020-03-03 20:00
1583287254063.0,9.499527,-2.8279784,2.5396218,2020-03-03 20:00:54.063000-06:00,2020-03-03 20:00
1583287254113.0,10.226263000000001,-3.5030089999999996,3.872754,2020-03-03 20:00:54.113000-06:00,2020-03-03 20:00
1583287254162.0,10.674977,-3.3014126000000004,4.674335500000001,2020-03-03 20:00:54.162000-06:00,2020-03-03 20:00
1583287254213.0,11.123183000000001,-4.4600167,5.1665606,2020-03-03 20:00:54.213000-06:00,2020-03-03 20:00
1583287254262.0,10.474063000000001,-4.9444294,3.6901742999999994,2020-03-03 20:00:54.262000-06:00,2020-03-03 20:00
1583287254312.0,10.780923,-4.319131,2.483011,2020-03-03 20:00:54.312000-06:00,2020-03-03 20:00
1583287254362.0,10.363211999999999,-3.4716809,0.9772940999999999,2020-03-03 20:00:54.362000-06:00,2020-03-03 20:00
1583287254412.0,9.961358,-3.678633,0.5035649,2020-03-03 20:00:54.412000-06:00,2020-03-03 20:00
1583287254462.0,9.141534,-4.0793667000000005,-0.047539577,2020-03-03 20:00:54.462000-06:00,2020-03-03 20:00
1583287254513.0,7.919842200000001,-4.6494846,-0.76826537,2020-03-03 20:00:54.513000-06:00,2020-03-03 20:00
1583287254563.0,7.0661,-4.9452515,-0.6698075,2020-03-03 20:00:54.563000-06:00,2020-03-03 20:00
1583287254612.0,6.787024499999999,-5.301183,0.04621515,2020-03-03 20:00:54.612000-06:00,2020-03-03 20:00
1583287254662.0,6.3778305,-6.0702534,0.44395876,2020-03-03 20:00:54.662000-06:00,2020-03-03 20:00
1583287254713.0,6.410928,-7.0262785,1.0547543,2020-03-03 20:00:54.713000-06:00,2020-03-03 20:00
1583287254763.0,6.312611599999999,-8.280759,1.2501678,2020-03-03 20:00:54.763000-06:00,2020-03-03 20:00
1583287254812.0,6.2644525,-10.605435,-1.2063291999999999,2020-03-03 20:00:54.812000-06:00,2020-03-03 20:00
1583287254862.0,6.419035,-14.1184635,-3.887497,2020-03-03 20:00:54.862000-06:00,2020-03-03 20:00
1583287254913.0,8.217138,-13.792734,-6.7951559999999995,2020-03-03 20:00:54.913000-06:00,2020-03-03 20:00
1583287254963.0,10.044362,-13.843143,-9.365165,2020-03-03 20:00:54.963000-06:00,2020-03-03 20:00
1583287255013.0,13.928654000000002,-13.143576000000001,-9.813546,2020-03-03 20:00:55.013000-06:00,2020-03-03 20:00
1583287255062.0,15.891169,-11.465957000000001,-9.77748,2020-03-03 20:00:55.062000-06:00,2020-03-03 20:00
1583287255112.0,17.507973,-8.147252,-7.0683665,2020-03-03 20:00:55.112000-06:00,2020-03-03 20:00
1583287255162.0,15.939775,-3.9813547,-2.1828656000000004,2020-03-03 20:00:55.162000-06:00,2020-03-03 20:00
1583287255212.0,14.897435999999999,-1.8822461,2.600557,2020-03-03 20:00:55.212000-06:00,2020-03-03 20:00
1583287255262.0,11.035922,-1.2064441000000001,9.6033325,2020-03-03 20:00:55.262000-06:00,2020-03-03 20:00
1583287255313.0,6.2163525,-2.2930896,17.818832,2020-03-03 20:00:55.313000-06:00,2020-03-03 20:00
1583287255362.0,3.145893,-1.2996371,28.823925,2020-03-03 20:00:55.362000-06:00,2020-03-03 20:00
1583287255412.0,0.19139406,-7.401411,18.331408,2020-03-03 20:00:55.412000-06:00,2020-03-03 20:00
1583287255463.0,3.1508207,-6.473605,13.533498999999999,2020-03-03 20:00:55.463000-06:00,2020-03-03 20:00
1583287255513.0,6.128677400000001,-7.884268,10.08446,2020-03-03 20:00:55.513000-06:00,2020-03-03 20:00
1583287255562.0,10.425968,-9.01918,5.1979666,2020-03-03 20:00:55.562000-06:00,2020-03-03 20:00
1583287255613.0,12.652796,-9.542347,0.015428424,2020-03-03 20:00:55.613000-06:00,2020-03-03 20:00
1583287255662.0,12.536082,-10.557779,-5.094844999999999,2020-03-03 20:00:55.662000-06:00,2020-03-03 20:00
1583287255712.0,10.837168,-12.012797,-10.535207000000002,2020-03-03 20:00:55.712000-06:00,2020-03-03 20:00
1583287255762.0,6.2095804,-13.614332000000001,-16.586693,2020-03-03 20:00:55.762000-06:00,2020-03-03 20:00
1583287255812.0,2.3347297,-14.046287,-18.930212,2020-03-03 20:00:55.812000-06:00,2020-03-03 20:00
1583287255863.0,2.2823446,-13.1736965,-18.91668,2020-03-03 20:00:55.863000-06:00,2020-03-03 20:00
1583287255912.0,4.869269,-12.117861999999999,-15.307479999999998,2020-03-03 20:00:55.912000-06:00,2020-03-03 20:00
1583287255963.0,7.990753,-10.552128999999999,-11.144062,2020-03-03 20:00:55.963000-06:00,2020-03-03 20:00
1583287256013.0,8.978458999999999,-10.257574,-6.610208999999999,2020-03-03 20:00:56.013000-06:00,2020-03-03 20:00
1583287256062.0,9.094232,-9.430344,-1.8582385,2020-03-03 20:00:56.062000-06:00,2020-03-03 20:00
1583287256112.0,8.000483500000001,-7.5662065,3.4383154,2020-03-03 20:00:56.112000-06:00,2020-03-03 20:00
1583287256162.0,7.2243223,-6.6704197,7.953252,2020-03-03 20:00:56.162000-06:00,2020-03-03 20:00
1583287256212.0,5.2543917,-5.5171638,12.919887,2020-03-03 20:00:56.212000-06:00,2020-03-03 20:00
1583287256262.0,3.2721217,-6.6213293,16.887417000000003,2020-03-03 20:00:56.262000-06:00,2020-03-03 20:00
1583287256312.0,1.6579506000000002,-5.7213106,18.83171,2020-03-03 20:00:56.312000-06:00,2020-03-03 20:00
1583287256363.0,2.176629,-6.6291337,14.828438,2020-03-03 20:00:56.363000-06:00,2020-03-03 20:00
1583287256412.0,3.4955082,-6.941389999999999,11.950853,2020-03-03 20:00:56.412000-06:00,2020-03-03 20:00
1583287256463.0,5.2512155,-6.5139894,8.896461,2020-03-03 20:00:56.463000-06:00,2020-03-03 20:00
1583287256513.0,6.883559700000001,-7.403548,5.5214734000000005,2020-03-03 20:00:56.513000-06:00,2020-03-03 20:00
1583287256563.0,7.954867,-8.178167,2.1713305,2020-03-03 20:00:56.563000-06:00,2020-03-03 20:00
1583287256613.0,7.8804336,-10.120556,-1.6079469,2020-03-03 20:00:56.613000-06:00,2020-03-03 20:00
1583287256662.0,7.1776295,-11.385810000000001,-4.996607,2020-03-03 20:00:56.662000-06:00,2020-03-03 20:00
1583287256712.0,5.858434,-12.729412,-9.698689,2020-03-03 20:00:56.712000-06:00,2020-03-03 20:00
1583287256763.0,2.6126382,-13.278184,-12.644712,2020-03-03 20:00:56.763000-06:00,2020-03-03 20:00
1583287256813.0,1.2762417,-13.242783,-13.915295,2020-03-03 20:00:56.813000-06:00,2020-03-03 20:00
1583287256862.0,0.8538566999999999,-11.992875,-13.280871,2020-03-03 20:00:56.862000-06:00,2020-03-03 20:00
1583287256912.0,1.5150268999999998,-10.734195,-11.737178,2020-03-03 20:00:56.912000-06:00,2020-03-03 20:00
1583287256962.0,2.5456847999999996,-10.109527,-10.065783999999999,2020-03-03 20:00:56.962000-06:00,2020-03-03 20:00
1583287257013.0,4.2648144,-9.715105,-8.501524,2020-03-03 20:00:57.013000-06:00,2020-03-03 20:00
1583287257062.0,5.942414299999999,-9.127976,-5.914102,2020-03-03 20:00:57.062000-06:00,2020-03-03 20:00
1583287257112.0,7.1198809999999995,-8.35056,-2.3947472999999997,2020-03-03 20:00:57.112000-06:00,2020-03-03 20:00
1583287257163.0,7.47514,-7.6277213,2.175776,2020-03-03 20:00:57.163000-06:00,2020-03-03 20:00
1583287257213.0,8.305003999999998,-7.1060443,6.815252,2020-03-03 20:00:57.213000-06:00,2020-03-03 20:00
1583287257263.0,6.5504165,-8.920371000000001,12.865099,2020-03-03 20:00:57.263000-06:00,2020-03-03 20:00
1583287257313.0,3.8308482,-9.035641,19.121565,2020-03-03 20:00:57.313000-06:00,2020-03-03 20:00
1583287257362.0,2.316743,-9.863995,24.182686,2020-03-03 20:00:57.362000-06:00,2020-03-03 20:00
1583287257413.0,2.8521006,-9.338573,14.963683999999999,2020-03-03 20:00:57.413000-06:00,2020-03-03 20:00
1583287257462.0,4.4678664,-8.325725,11.208922,2020-03-03 20:00:57.462000-06:00,2020-03-03 20:00
1583287257513.0,6.098804,-7.199889,7.2842417,2020-03-03 20:00:57.513000-06:00,2020-03-03 20:00
1583287257563.0,7.8886785999999995,-6.2130575,3.8604167,2020-03-03 20:00:57.563000-06:00,2020-03-03 20:00
1583287257613.0,8.623439,-5.6791005,0.28591168,2020-03-03 20:00:57.613000-06:00,2020-03-03 20:00
1583287257662.0,8.808155000000001,-5.349574,-2.5679483,2020-03-03 20:00:57.662000-06:00,2020-03-03 20:00
1583287257713.0,9.525696,-5.595576,-5.1000879999999995,2020-03-03 20:00:57.713000-06:00,2020-03-03 20:00
1583287257762.0,10.520816,-4.859587,-7.0386276,2020-03-03 20:00:57.762000-06:00,2020-03-03 20:00
1583287257812.0,9.782882,-6.9009356,-9.2436285,2020-03-03 20:00:57.812000-06:00,2020-03-03 20:00
1583287257863.0,8.92104,-7.9865494,-10.636619999999999,2020-03-03 20:00:57.863000-06:00,2020-03-03 20:00
1583287257912.0,9.160433,-9.358253999999999,-8.880849000000001,2020-03-03 20:00:57.912000-06:00,2020-03-03 20:00
1583287257962.0,9.935652000000001,-10.087694,-6.6707883,2020-03-03 20:00:57.962000-06:00,2020-03-03 20:00
1583287258012.0,10.743397,-11.953613,-4.1785703000000005,2020-03-03 20:00:58.012000-06:00,2020-03-03 20:00
1583287258062.0,12.238041,-11.878613,-1.5397602,2020-03-03 20:00:58.062000-06:00,2020-03-03 20:00
