Time,proximity,ambient,leanForward,qW,qX,qY,qZ,aX,aY,aZ,power,cal,DT,Hour
1583279281890.0,0.0,0.0,115.47493109853339,0.03118896484375,0.04827880859375,0.84423828125,-0.53289794921875,0.05078125,-0.11328125,-0.08203125,0.0221405029296875,3.0,2020-03-03 17:48:01.890000-06:00,2020-03-03 17:00
1583279281930.0,0.0,0.0,115.31738964694557,0.03173828125,0.0478515625,0.843505859375,-0.53399658203125,0.05078125,-0.11328125,-0.08203125,0.0221405029296875,3.0,2020-03-03 17:48:01.930000-06:00,2020-03-03 17:00
1583279281980.0,0.0,0.0,115.18602966657184,0.03253173828125,0.04730224609375,0.84295654296875,-0.53497314453125,0.01171875,-0.05859375,-0.01171875,0.0037078857421875,3.0,2020-03-03 17:48:01.980000-06:00,2020-03-03 17:00
1583279282030.0,0.0,0.0,114.69601562603529,0.03656005859375,0.05010986328125,0.8404541015625,-0.53826904296875,-0.06640625,-0.03515625,0.0859375,0.013031005859375,3.0,2020-03-03 17:48:02.030000-06:00,2020-03-03 17:00
1583279282080.0,0.0,0.0,114.25017218315244,0.03973388671875,0.053466796875,0.838134765625,-0.54132080078125,0.02734375,-0.04296875,-0.08984375,0.0106658935546875,3.0,2020-03-03 17:48:02.080000-06:00,2020-03-03 17:00
1583279282130.0,0.0,0.0,113.73627425594678,0.04388427734375,0.05731201171875,0.83544921875,-0.5447998046875,-0.16015625,0.1640625,0.19140625,0.089202880859375,3.0,2020-03-03 17:48:02.130000-06:00,2020-03-03 17:00
1583279282180.0,0.0,0.0,111.88031957639627,0.06060791015625,0.07928466796875,0.82464599609375,-0.5567626953125,0.046875,-0.1640625,0.04296875,0.0309600830078125,3.0,2020-03-03 17:48:02.180000-06:00,2020-03-03 17:00
1583279282230.0,0.0,0.0,109.58936143741094,0.0838623046875,0.110595703125,0.8095703125,-0.57037353515625,0.53125,-0.24609375,-0.20703125,0.385650634765625,3.0,2020-03-03 17:48:02.230000-06:00,2020-03-03 17:00
1583279282280.0,0.0,0.0,107.09717133158414,0.1195068359375,0.13250732421875,0.79339599609375,-0.58203125,0.50390625,0.44921875,-0.21875,0.503570556640625,3.0,2020-03-03 17:48:02.280000-06:00,2020-03-03 17:00
1583279282330.0,0.0,0.0,104.28153597535082,0.1568603515625,0.16375732421875,0.7723388671875,-0.59332275390625,0.921875,0.6171875,-1.17578125,2.6132354736328125,3.0,2020-03-03 17:48:02.330000-06:00,2020-03-03 17:00
1583279282380.0,0.0,0.0,104.06807287572882,0.181640625,0.21929931640625,0.75726318359375,-0.5877685546875,0.2890625,0.015625,0.984375,1.05279541015625,3.0,2020-03-03 17:48:02.380000-06:00,2020-03-03 17:00
1583279282430.0,0.0,0.0,104.68983158676329,0.19927978515625,0.27825927734375,0.7412109375,-0.5775146484375,-0.2421875,-0.109375,1.87890625,3.6009063720703125,3.0,2020-03-03 17:48:02.430000-06:00,2020-03-03 17:00
1583279282480.0,0.0,0.0,102.04502839441605,0.2371826171875,0.302490234375,0.71612548828125,-0.58258056640625,0.77734375,1.796875,-0.37109375,3.970733642578125,3.0,2020-03-03 17:48:02.480000-06:00,2020-03-03 17:00
1583279282530.0,0.0,0.0,99.55104305928256,0.3837890625,0.17840576171875,0.74237060546875,-0.51934814453125,1.1796875,1.1796875,-0.71484375,3.2943267822265625,3.0,2020-03-03 17:48:02.530000-06:00,2020-03-03 17:00
1583279282590.0,0.0,0.0,96.30685823938921,0.4429931640625,0.18109130859375,0.72259521484375,-0.49884033203125,0.76171875,1.875,0.3828125,4.2423858642578125,3.0,2020-03-03 17:48:02.590000-06:00,2020-03-03 17:00
1583279282630.0,0.0,0.0,89.63152390877869,0.521728515625,0.199462890625,0.676025390625,-0.48065185546875,1.5,1.28125,-0.9375,4.7705078125,3.0,2020-03-03 17:48:02.630000-06:00,2020-03-03 17:00
1583279282680.0,0.0,0.0,83.99821129743279,0.59576416015625,0.2459716796875,0.62225341796875,-0.4442138671875,1.28125,1.60546875,0.61328125,4.595245361328125,3.0,2020-03-03 17:48:02.680000-06:00,2020-03-03 17:00
1583279282730.0,0.0,0.0,81.92243420970486,0.6446533203125,0.30987548828125,0.57769775390625,-0.393310546875,0.7265625,0.87890625,1.6796875,4.1217193603515625,3.0,2020-03-03 17:48:02.730000-06:00,2020-03-03 17:00
1583279282790.0,0.0,0.0,79.97564309517402,0.68426513671875,0.3564453125,0.53472900390625,-0.3447265625,1.86328125,1.3671875,0.76953125,5.933197021484375,3.0,2020-03-03 17:48:02.790000-06:00,2020-03-03 17:00
1583279282830.0,0.0,0.0,76.97036010695987,0.71832275390625,0.3831787109375,0.4903564453125,-0.31103515625,2.8203125,3.20703125,-0.81640625,18.905731201171875,3.0,2020-03-03 17:48:02.830000-06:00,2020-03-03 17:00
1583279282880.0,0.0,0.0,75.30677293162401,0.74078369140625,0.40716552734375,0.45538330078125,-0.27935791015625,3.1875,2.7890625,0.25,18.00152587890625,3.0,2020-03-03 17:48:02.880000-06:00,2020-03-03 17:00
1583279282930.0,0.0,0.0,74.04172242200673,0.7587890625,0.42413330078125,0.4273681640625,-0.2484130859375,3.1875,2.84375,0.2578125,18.31353759765625,3.0,2020-03-03 17:48:02.930000-06:00,2020-03-03 17:00
1583279282980.0,0.0,0.0,73.92426899358209,0.7652587890625,0.43804931640625,0.411865234375,-0.22979736328125,3.01953125,3.02734375,0.28125,18.361480712890625,3.0,2020-03-03 17:48:02.980000-06:00,2020-03-03 17:00
1583279283030.0,0.0,0.0,74.46531104548644,0.765869140625,0.45220947265625,0.4019775390625,-0.21759033203125,3.51171875,4.55859375,1.14453125,34.422897338867195,3.0,2020-03-03 17:48:03.030000-06:00,2020-03-03 17:00
1583279283080.0,0.0,0.0,75.88931027623792,0.7613525390625,0.47540283203125,0.3900146484375,-0.20556640625,3.5234375,3.61328125,0.640625,25.88081359863281,3.0,2020-03-03 17:48:03.080000-06:00,2020-03-03 17:00
1583279283130.0,0.0,0.0,79.52131210766845,0.74835205078125,0.52093505859375,0.37103271484375,-0.17572021484375,2.9453125,3.22265625,1.41015625,21.04891967773437,3.0,2020-03-03 17:48:03.130000-06:00,2020-03-03 17:00
1583279283180.0,0.0,0.0,84.43820608746506,0.7296142578125,0.58538818359375,0.3299560546875,-0.12701416015625,3.87109375,2.41796875,0.0859375,20.839324951171875,3.0,2020-03-03 17:48:03.180000-06:00,2020-03-03 17:00
1583279283230.0,0.0,0.0,89.4666663682583,0.7098388671875,0.605712890625,0.3583984375,0.02783203125,2.50390625,1.55859375,0.5546875,9.006439208984375,3.0,2020-03-03 17:48:03.230000-06:00,2020-03-03 17:00
1583279283280.0,0.0,0.0,89.0720171852627,0.7110595703125,0.59039306640625,0.37860107421875,0.0499267578125,4.3125,2.4609375,-1.01171875,25.67744445800781,3.0,2020-03-03 17:48:03.280000-06:00,2020-03-03 17:00
1583279283330.0,0.0,0.0,88.27058580070579,0.7176513671875,0.56097412109375,0.41253662109375,0.005859375,6.42578125,3.671875,-1.375,56.66395568847656,3.0,2020-03-03 17:48:03.330000-06:00,2020-03-03 17:00
1583279283380.0,0.0,0.0,88.100474410246,0.71868896484375,0.5526123046875,0.42193603515625,-0.006591796875,5.3671875,3.25390625,-0.71484375,39.905609130859375,3.0,2020-03-03 17:48:03.380000-06:00,2020-03-03 17:00
1583279283430.0,0.0,0.0,88.1983655900688,0.7181396484375,0.55474853515625,0.420166015625,-0.0003662109375,2.8203125,1.82421875,-0.39453125,11.437591552734375,3.0,2020-03-03 17:48:03.430000-06:00,2020-03-03 17:00
1583279283480.0,0.0,0.0,88.30817264805134,0.71746826171875,0.55230712890625,0.42449951171875,-0.00244140625,3.66796875,2.87890625,-0.34765625,21.862960815429688,3.0,2020-03-03 17:48:03.480000-06:00,2020-03-03 17:00
1583279283530.0,0.0,0.0,88.81847368146722,0.71429443359375,0.54931640625,0.43353271484375,-0.0101318359375,3.75390625,2.92578125,-0.25,22.714508056640625,3.0,2020-03-03 17:48:03.530000-06:00,2020-03-03 17:00
1583279283580.0,0.0,0.0,89.45514525012881,0.71014404296875,0.54486083984375,0.44537353515625,-0.0208740234375,3.33984375,3.26171875,0.12890625,21.809982299804688,3.0,2020-03-03 17:48:03.580000-06:00,2020-03-03 17:00
1583279283630.0,0.0,0.0,89.52479182425091,0.70977783203125,0.5477294921875,0.44256591796875,-0.01953125,3.71875,2.453125,-0.46875,20.066650390625,3.0,2020-03-03 17:48:03.630000-06:00,2020-03-03 17:00
1583279283680.0,0.0,0.0,89.57398180811536,0.70953369140625,0.5496826171875,0.44061279296875,-0.0169677734375,3.140625,2.59765625,-0.30859375,16.706573486328125,3.0,2020-03-03 17:48:03.680000-06:00,2020-03-03 17:00
1583279283730.0,0.0,0.0,89.4758789781657,0.710205078125,0.55126953125,0.4376220703125,-0.012939453125,3.0625,2.2890625,-0.40625,14.78375244140625,3.0,2020-03-03 17:48:03.730000-06:00,2020-03-03 17:00
1583279283780.0,0.0,0.0,89.25813428267907,0.71160888671875,0.5513916015625,0.435302734375,-0.009033203125,3.3515625,2.46484375,-0.4609375,17.520889282226562,3.0,2020-03-03 17:48:03.780000-06:00,2020-03-03 17:00
1583279283830.0,0.0,0.0,89.1612821537662,0.71221923828125,0.5517578125,0.433837890625,-0.00579833984375,2.8203125,2.1953125,-0.33203125,12.883804321289062,3.0,2020-03-03 17:48:03.830000-06:00,2020-03-03 17:00
1583279283880.0,0.0,0.0,89.20454918599032,0.71197509765625,0.55230712890625,0.43359375,-0.00457763671875,2.97265625,2.69140625,-0.26953125,16.152999877929688,3.0,2020-03-03 17:48:03.880000-06:00,2020-03-03 17:00
1583279283930.0,0.0,0.0,89.21791307714153,0.7119140625,0.5528564453125,0.43304443359375,-0.00238037109375,2.89453125,2.40625,-0.33984375,14.283843994140625,3.0,2020-03-03 17:48:03.930000-06:00,2020-03-03 17:00
1583279283980.0,0.0,0.0,89.25555823090225,0.711669921875,0.553466796875,0.4326171875,-0.00128173828125,2.69140625,2.11328125,-0.29296875,11.795455932617188,3.0,2020-03-03 17:48:03.980000-06:00,2020-03-03 17:00
1583279284030.0,0.0,0.0,89.30931368939878,0.71136474609375,0.55401611328125,0.4324951171875,-0.000732421875,2.875,2.44140625,-0.16796875,14.254302978515625,3.0,2020-03-03 17:48:04.030000-06:00,2020-03-03 17:00
1583279284080.0,0.0,0.0,89.29481148148584,0.71142578125,0.5550537109375,0.43096923828125,0.0001220703125,2.63671875,2.07421875,-0.27734375,11.331588745117188,3.0,2020-03-03 17:48:04.080000-06:00,2020-03-03 17:00
1583279284130.0,0.0,0.0,89.30497513484549,0.71136474609375,0.555419921875,0.43060302734375,0.00079345703125,2.55078125,2.1640625,-0.19140625,11.226287841796877,3.0,2020-03-03 17:48:04.130000-06:00,2020-03-03 17:00
1583279284180.0,0.0,0.0,89.90219847378044,0.7032470703125,0.6136474609375,0.35015869140625,0.07952880859375,2.51171875,2.03125,-0.26171875,10.503204345703123,3.0,2020-03-03 17:48:04.180000-06:00,2020-03-03 17:00
1583279284230.0,0.0,0.0,90.26952687544676,0.69696044921875,0.6317138671875,0.3214111328125,0.109130859375,-0.08203125,-0.046875,-0.01953125,0.009307861328125,3.0,2020-03-03 17:48:04.230000-06:00,2020-03-03 17:00
1583279284280.0,0.0,0.0,90.46324939411964,0.693359375,0.63946533203125,0.30841064453125,0.123291015625,-0.08203125,-0.046875,0.01953125,0.009307861328125,3.0,2020-03-03 17:48:04.280000-06:00,2020-03-03 17:00
1583279284330.0,0.0,0.0,90.59522007086414,0.69110107421875,0.64410400390625,0.30059814453125,0.1312255859375,0.078125,-0.0859375,-0.04296875,0.0153350830078125,3.0,2020-03-03 17:48:04.330000-06:00,2020-03-03 17:00
1583279284380.0,0.0,0.0,90.68850838972895,0.6893310546875,0.64727783203125,0.2950439453125,0.13720703125,0.0390625,0.0390625,-0.03515625,0.0042877197265625,3.0,2020-03-03 17:48:04.380000-06:00,2020-03-03 17:00
1583279284430.0,0.0,0.0,90.75651068145291,0.68792724609375,0.64990234375,0.29022216796875,0.1419677734375,-0.03515625,-0.046875,0.00390625,0.003448486328125,3.0,2020-03-03 17:48:04.430000-06:00,2020-03-03 17:00
1583279284480.0,0.0,0.0,90.76867120284014,0.68701171875,0.6517333984375,0.28631591796875,0.14605712890625,0.1484375,-0.0390625,-0.1015625,0.03387451171875,3.0,2020-03-03 17:48:04.480000-06:00,2020-03-03 17:00
1583279284530.0,0.0,0.0,90.8264749336071,0.6859130859375,0.6534423828125,0.28326416015625,0.1494140625,-0.09765625,0.0078125,0.05078125,0.012176513671875,3.0,2020-03-03 17:48:04.530000-06:00,2020-03-03 17:00
1583279284580.0,0.0,0.0,90.88283923169027,0.68487548828125,0.6551513671875,0.2801513671875,0.1524658203125,0.0234375,0.046875,0.01171875,0.0028839111328125,3.0,2020-03-03 17:48:04.580000-06:00,2020-03-03 17:00
1583279284630.0,0.0,0.0,90.90394323981769,0.684326171875,0.65606689453125,0.2783203125,0.154296875,0.015625,0.0859375,0.01171875,0.0077667236328125,3.0,2020-03-03 17:48:04.630000-06:00,2020-03-03 17:00
1583279284680.0,0.0,0.0,90.8965140652187,0.68377685546875,0.656982421875,0.2760009765625,0.1568603515625,0.0703125,-0.03125,-0.02734375,0.0066680908203125,3.0,2020-03-03 17:48:04.680000-06:00,2020-03-03 17:00
1583279284730.0,0.0,0.0,91.03227906938295,0.68255615234375,0.658203125,0.2752685546875,0.158447265625,-0.0078125,0.17578125,0.04296875,0.032806396484375,3.0,2020-03-03 17:48:04.730000-06:00,2020-03-03 17:00
1583279284780.0,0.0,0.0,91.06904234081851,0.68194580078125,0.65887451171875,0.27423095703125,0.1600341796875,0.015625,-0.09765625,-0.0625,0.0136871337890625,3.0,2020-03-03 17:48:04.780000-06:00,2020-03-03 17:00
1583279284830.0,0.0,0.0,91.09522755317123,0.68145751953125,0.6593017578125,0.273681640625,0.1614990234375,0.0234375,-0.0234375,-0.0546875,0.00408935546875,3.0,2020-03-03 17:48:04.830000-06:00,2020-03-03 17:00
1583279284880.0,0.0,0.0,91.06281874804935,0.6812744140625,0.65936279296875,0.27294921875,0.16302490234375,0.00390625,-0.13671875,-0.0546875,0.021697998046875,3.0,2020-03-03 17:48:04.880000-06:00,2020-03-03 17:00
1583279284930.0,0.0,0.0,91.08047979722835,0.680908203125,0.65960693359375,0.272705078125,0.1641845703125,-0.03515625,-0.046875,-0.01953125,0.003814697265625,3.0,2020-03-03 17:48:04.930000-06:00,2020-03-03 17:00
1583279284980.0,0.0,0.0,91.15163185446673,0.6800537109375,0.660400390625,0.2718505859375,0.16571044921875,0.0625,0.03125,-0.03515625,0.0061187744140625,3.0,2020-03-03 17:48:04.980000-06:00,2020-03-03 17:00
1583279285030.0,0.0,0.0,91.20602149202841,0.6795654296875,0.6610107421875,0.27130126953125,0.1663818359375,0.09375,0.1015625,0.01953125,0.0194854736328125,3.0,2020-03-03 17:48:05.030000-06:00,2020-03-03 17:00
1583279285080.0,0.0,0.0,91.2304626588572,0.67913818359375,0.66131591796875,0.2708740234375,0.1673583984375,0.0546875,-0.08984375,-0.046875,0.0132598876953125,3.0,2020-03-03 17:48:05.080000-06:00,2020-03-03 17:00
1583279285130.0,0.0,0.0,91.22691612145464,0.6790771484375,0.6614990234375,0.2703857421875,0.167724609375,0.0546875,-0.015625,-0.0390625,0.0047607421875,3.0,2020-03-03 17:48:05.130000-06:00,2020-03-03 17:00
1583279285180.0,0.0,0.0,91.21976050764593,0.67913818359375,0.661376953125,0.27056884765625,0.16766357421875,0.0859375,-0.08203125,-0.0390625,0.0156402587890625,3.0,2020-03-03 17:48:05.180000-06:00,2020-03-03 17:00
1583279285230.0,0.0,0.0,91.25329451420723,0.6788330078125,0.6614990234375,0.27081298828125,0.16802978515625,0.01953125,0.0859375,-0.03125,0.0087432861328125,3.0,2020-03-03 17:48:05.230000-06:00,2020-03-03 17:00
1583279285280.0,0.0,0.0,91.265027984009,0.67877197265625,0.66131591796875,0.271484375,0.16802978515625,-0.05859375,0.0,-0.0625,0.0073394775390625,3.0,2020-03-03 17:48:05.280000-06:00,2020-03-03 17:00
1583279285330.0,0.0,0.0,91.23300194154264,0.678955078125,0.66107177734375,0.27154541015625,0.1680908203125,0.109375,-0.0234375,-0.015625,0.01275634765625,3.0,2020-03-03 17:48:05.330000-06:00,2020-03-03 17:00
1583279285380.0,0.0,0.0,91.29246400296749,0.6785888671875,0.66162109375,0.271240234375,0.16815185546875,0.00390625,0.09375,0.05859375,0.012237548828125,3.0,2020-03-03 17:48:05.380000-06:00,2020-03-03 17:00
1583279285430.0,0.0,0.0,91.33840507818556,0.67828369140625,0.66204833984375,0.2708740234375,0.1680908203125,-0.00390625,0.09375,0.05859375,0.012237548828125,3.0,2020-03-03 17:48:05.430000-06:00,2020-03-03 17:00
1583279285480.0,0.0,0.0,91.41483305389616,0.67791748046875,0.6622314453125,0.27166748046875,0.1676025390625,0.03515625,-0.03125,-0.0546875,0.0052032470703125,3.0,2020-03-03 17:48:05.480000-06:00,2020-03-03 17:00
1583279285530.0,0.0,0.0,91.38576597355762,0.67791748046875,0.662109375,0.271484375,0.1683349609375,-0.09765625,-0.18359375,-0.0390625,0.044769287109375,3.0,2020-03-03 17:48:05.530000-06:00,2020-03-03 17:00
1583279285580.0,0.0,0.0,91.4113964235648,0.677734375,0.662109375,0.2718505859375,0.1683349609375,-0.05859375,-0.13671875,-0.0859375,0.029510498046875,3.0,2020-03-03 17:48:05.580000-06:00,2020-03-03 17:00
1583279285630.0,0.0,0.0,91.41021849919129,0.677734375,0.662109375,0.2718505859375,0.16839599609375,0.08203125,0.109375,0.03515625,0.019927978515625,3.0,2020-03-03 17:48:05.630000-06:00,2020-03-03 17:00
1583279285680.0,0.0,0.0,91.432396543678,0.6776123046875,0.66217041015625,0.27203369140625,0.16827392578125,-0.03515625,-0.08984375,0.0078125,0.009368896484375,3.0,2020-03-03 17:48:05.680000-06:00,2020-03-03 17:00
1583279285730.0,0.0,0.0,91.453199357573,0.6773681640625,0.662353515625,0.27191162109375,0.168701171875,-0.03515625,-0.0078125,0.0078125,0.0013580322265625,3.0,2020-03-03 17:48:05.730000-06:00,2020-03-03 17:00
1583279285780.0,0.0,0.0,91.47883504564108,0.67724609375,0.6624755859375,0.2720947265625,0.16864013671875,0.00390625,0.078125,0.0,0.0061187744140625,3.0,2020-03-03 17:48:05.780000-06:00,2020-03-03 17:00
1583279285830.0,0.0,0.0,91.45698343538768,0.67742919921875,0.662353515625,0.27203369140625,0.16845703125,0.05859375,-0.04296875,-0.03125,0.006256103515625,3.0,2020-03-03 17:48:05.830000-06:00,2020-03-03 17:00
1583279285880.0,0.0,0.0,91.45199899296291,0.67742919921875,0.662353515625,0.27191162109375,0.16851806640625,0.05078125,-0.03515625,0.0078125,0.003875732421875,3.0,2020-03-03 17:48:05.880000-06:00,2020-03-03 17:00
1583279285940.0,0.0,0.0,91.47643450310488,0.67730712890625,0.662353515625,0.27227783203125,0.1683349609375,-0.06640625,0.0078125,0.03515625,0.005706787109375,3.0,2020-03-03 17:48:05.940000-06:00,2020-03-03 17:00
1583279285980.0,0.0,0.0,91.50587234244966,0.67718505859375,0.662353515625,0.27276611328125,0.1680908203125,-0.04296875,0.0078125,0.04296875,0.003753662109375,3.0,2020-03-03 17:48:05.980000-06:00,2020-03-03 17:00
1583279286030.0,0.0,0.0,91.52562938803005,0.67706298828125,0.662353515625,0.27313232421875,0.16815185546875,-0.04296875,0.0078125,0.04296875,0.003753662109375,3.0,2020-03-03 17:48:06.030000-06:00,2020-03-03 17:00
1583279286080.0,0.0,0.0,91.52338188714887,0.677001953125,0.66241455078125,0.27294921875,0.16845703125,-0.03515625,-0.01953125,-0.0390625,0.003143310546875,3.0,2020-03-03 17:48:06.080000-06:00,2020-03-03 17:00
1583279286130.0,0.0,0.0,91.54863555421488,0.67694091796875,0.6624755859375,0.273193359375,0.16802978515625,0.04296875,0.0546875,0.04296875,0.006683349609375,3.0,2020-03-03 17:48:06.130000-06:00,2020-03-03 17:00
1583279286180.0,0.0,0.0,91.54348499722148,0.67706298828125,0.66241455078125,0.27325439453125,0.16766357421875,0.08984375,0.015625,0.0078125,0.0083770751953125,3.0,2020-03-03 17:48:06.180000-06:00,2020-03-03 17:00
1583279286230.0,0.0,0.0,91.54336798778064,0.6771240234375,0.662353515625,0.2734375,0.16748046875,-0.01171875,0.0234375,0.0078125,0.0007476806640625,3.0,2020-03-03 17:48:06.230000-06:00,2020-03-03 17:00
1583279286280.0,0.0,0.0,91.60729262687228,0.67669677734375,0.66259765625,0.27386474609375,0.16754150390625,-0.125,-0.01171875,0.0078125,0.0158233642578125,3.0,2020-03-03 17:48:06.280000-06:00,2020-03-03 17:00
1583279286330.0,0.0,0.0,91.62548631233207,0.676513671875,0.6629638671875,0.27325439453125,0.16778564453125,0.07421875,0.140625,-0.0234375,0.0258331298828125,3.0,2020-03-03 17:48:06.330000-06:00,2020-03-03 17:00
1583279286380.0,0.0,0.0,91.67057930525525,0.6763916015625,0.66314697265625,0.27349853515625,0.16705322265625,0.06640625,0.0234375,0.05078125,0.007537841796875,3.0,2020-03-03 17:48:06.380000-06:00,2020-03-03 17:00
1583279286430.0,0.0,0.0,91.63285799909764,0.67657470703125,0.66302490234375,0.273193359375,0.16729736328125,0.01171875,0.0234375,0.0078125,0.0007476806640625,3.0,2020-03-03 17:48:06.430000-06:00,2020-03-03 17:00
1583279286480.0,0.0,0.0,91.6908256525042,0.6761474609375,0.6630859375,0.27398681640625,0.16754150390625,-0.1328125,-0.00390625,0.0,0.0176544189453125,3.0,2020-03-03 17:48:06.480000-06:00,2020-03-03 17:00
1583279286530.0,0.0,0.0,91.6036891412544,0.67657470703125,0.662841796875,0.273193359375,0.1680908203125,-0.109375,0.109375,-0.0234375,0.02447509765625,3.0,2020-03-03 17:48:06.530000-06:00,2020-03-03 17:00
1583279286580.0,0.0,0.0,91.58519479286294,0.6767578125,0.66302490234375,0.2724609375,0.1678466796875,0.2265625,-0.08203125,-0.1015625,0.0683746337890625,3.0,2020-03-03 17:48:06.580000-06:00,2020-03-03 17:00
1583279286630.0,0.0,0.0,91.52765141486496,0.6773681640625,0.6627197265625,0.27227783203125,0.1668701171875,0.05859375,0.109375,0.08984375,0.023468017578125,3.0,2020-03-03 17:48:06.630000-06:00,2020-03-03 17:00
1583279286680.0,0.0,0.0,91.38044157049991,0.67822265625,0.66229248046875,0.2708740234375,0.1671142578125,0.10546875,-0.12109375,-0.1171875,0.039520263671875,3.0,2020-03-03 17:48:06.680000-06:00,2020-03-03 17:00
1583279286730.0,0.0,0.0,91.43083194197791,0.67803955078125,0.66217041015625,0.27203369140625,0.1666259765625,-0.140625,0.15625,0.02734375,0.0449371337890625,3.0,2020-03-03 17:48:06.730000-06:00,2020-03-03 17:00
1583279286780.0,0.0,0.0,91.39938234878672,0.67828369140625,0.661865234375,0.2723388671875,0.16656494140625,-0.109375,0.26171875,0.10546875,0.091583251953125,3.0,2020-03-03 17:48:06.780000-06:00,2020-03-03 17:00
1583279286830.0,0.0,0.0,91.4098378143164,0.6783447265625,0.66156005859375,0.273193359375,0.16595458984375,0.05859375,-0.08984375,-0.015625,0.011749267578125,3.0,2020-03-03 17:48:06.830000-06:00,2020-03-03 17:00
1583279286880.0,0.0,0.0,91.36851967356426,0.67864990234375,0.6614990234375,0.272705078125,0.16583251953125,0.03515625,-0.04296875,0.01953125,0.0034637451171875,3.0,2020-03-03 17:48:06.880000-06:00,2020-03-03 17:00
1583279286930.0,0.0,0.0,91.33329556178387,0.67901611328125,0.6614990234375,0.27215576171875,0.165283203125,0.10546875,-0.08203125,0.04296875,0.0196990966796875,3.0,2020-03-03 17:48:06.930000-06:00,2020-03-03 17:00
1583279286980.0,0.0,0.0,91.2936109130249,0.67938232421875,0.6612548828125,0.2720947265625,0.164794921875,-0.046875,0.0390625,-0.00390625,0.0037384033203125,3.0,2020-03-03 17:48:06.980000-06:00,2020-03-03 17:00
1583279287030.0,0.0,0.0,91.29904870846585,0.6793212890625,0.66119384765625,0.2723388671875,0.1649169921875,-0.078125,0.00390625,0.01953125,0.006500244140625,3.0,2020-03-03 17:48:07.030000-06:00,2020-03-03 17:00
1583279287080.0,0.0,0.0,91.27169481490057,0.67950439453125,0.660400390625,0.2738037109375,0.16485595703125,-0.109375,-0.03515625,-0.0546875,0.0161895751953125,3.0,2020-03-03 17:48:07.080000-06:00,2020-03-03 17:00
1583279287130.0,0.0,0.0,91.21644925204126,0.67974853515625,0.65985107421875,0.27423095703125,0.165283203125,-0.0390625,-0.13671875,-0.01953125,0.020599365234375,3.0,2020-03-03 17:48:07.130000-06:00,2020-03-03 17:00
1583279287180.0,0.0,0.0,91.19495928008855,0.679931640625,0.65997314453125,0.2735595703125,0.1650390625,0.08203125,0.09375,0.05859375,0.018951416015625,3.0,2020-03-03 17:48:07.180000-06:00,2020-03-03 17:00
1583279287230.0,0.0,0.0,91.22275643958349,0.679931640625,0.660400390625,0.27301025390625,0.16436767578125,0.14453125,0.01171875,0.08203125,0.0277557373046875,3.0,2020-03-03 17:48:07.230000-06:00,2020-03-03 17:00
1583279287280.0,0.0,0.0,91.32681495440114,0.6793212890625,0.66094970703125,0.27337646484375,0.1641845703125,-0.0234375,0.125,0.11328125,0.0290069580078125,3.0,2020-03-03 17:48:07.280000-06:00,2020-03-03 17:00
1583279287330.0,0.0,0.0,91.35508345778194,0.67901611328125,0.6607666015625,0.2742919921875,0.16473388671875,-0.28515625,-0.12109375,-0.109375,0.107940673828125,3.0,2020-03-03 17:48:07.330000-06:00,2020-03-03 17:00
1583279287380.0,0.0,0.0,91.36659877604765,0.6788330078125,0.66033935546875,0.27545166015625,0.16510009765625,-0.0390625,-0.07421875,-0.0546875,0.0100250244140625,3.0,2020-03-03 17:48:07.380000-06:00,2020-03-03 17:00
1583279287430.0,0.0,0.0,91.35647742005828,0.67889404296875,0.66015625,0.2757568359375,0.1651611328125,0.10546875,-0.02734375,-0.046875,0.014068603515625,3.0,2020-03-03 17:48:07.430000-06:00,2020-03-03 17:00
1583279287480.0,0.0,0.0,91.34427360533545,0.67901611328125,0.66009521484375,0.275634765625,0.16485595703125,0.13671875,0.02734375,0.04296875,0.0212860107421875,3.0,2020-03-03 17:48:07.480000-06:00,2020-03-03 17:00
1583279287530.0,0.0,0.0,91.30460180493431,0.67919921875,0.66015625,0.27490234375,0.16522216796875,0.08203125,0.02734375,-0.00390625,0.0074920654296875,3.0,2020-03-03 17:48:07.530000-06:00,2020-03-03 17:00
1583279287580.0,0.0,0.0,91.30254965574859,0.6790771484375,0.6602783203125,0.2745361328125,0.16571044921875,-0.0859375,0.03515625,0.02734375,0.009368896484375,3.0,2020-03-03 17:48:07.580000-06:00,2020-03-03 17:00
1583279287630.0,0.0,0.0,91.31472871176071,0.678955078125,0.660400390625,0.27447509765625,0.16595458984375,-0.015625,-0.00390625,-0.0546875,0.0032501220703125,3.0,2020-03-03 17:48:07.630000-06:00,2020-03-03 17:00
1583279287680.0,0.0,0.0,91.34177712571785,0.6787109375,0.66058349609375,0.27447509765625,0.166259765625,0.05859375,0.109375,0.02734375,0.016143798828125,3.0,2020-03-03 17:48:07.680000-06:00,2020-03-03 17:00
1583279287730.0,0.0,0.0,91.36396499041912,0.6785888671875,0.66058349609375,0.27484130859375,0.16619873046875,-0.0234375,-0.05078125,-0.0859375,0.0105133056640625,3.0,2020-03-03 17:48:07.730000-06:00,2020-03-03 17:00
1583279287780.0,0.0,0.0,91.34958832068638,0.67864990234375,0.6605224609375,0.27471923828125,0.166259765625,0.06640625,0.02734375,-0.03125,0.006134033203125,3.0,2020-03-03 17:48:07.780000-06:00,2020-03-03 17:00
1583279287830.0,0.0,0.0,91.34996216383304,0.67864990234375,0.660400390625,0.2750244140625,0.166259765625,-0.015625,-0.01171875,-0.03125,0.0013580322265625,3.0,2020-03-03 17:48:07.830000-06:00,2020-03-03 17:00
1583279287880.0,0.0,0.0,91.31364733643684,0.67889404296875,0.66033935546875,0.274658203125,0.16632080078125,0.0234375,-0.01171875,-0.0234375,0.0012359619140625,3.0,2020-03-03 17:48:07.880000-06:00,2020-03-03 17:00
1583279287930.0,0.0,0.0,91.35614627655006,0.67864990234375,0.66046142578125,0.27496337890625,0.16607666015625,0.05078125,-0.00390625,-0.03125,0.003570556640625,3.0,2020-03-03 17:48:07.930000-06:00,2020-03-03 17:00
1583279287980.0,0.0,0.0,91.37333398710926,0.67852783203125,0.66064453125,0.27484130859375,0.16619873046875,-0.0546875,0.0546875,0.01171875,0.0061187744140625,3.0,2020-03-03 17:48:07.980000-06:00,2020-03-03 17:00
1583279288030.0,0.0,0.0,91.38144034886274,0.67852783203125,0.66046142578125,0.275390625,0.16595458984375,0.0234375,-0.13671875,-0.0546875,0.0222320556640625,3.0,2020-03-03 17:48:08.030000-06:00,2020-03-03 17:00
1583279288080.0,0.0,0.0,91.37951282229187,0.67852783203125,0.660400390625,0.2755126953125,0.166015625,-0.0390625,-0.01953125,0.01171875,0.002044677734375,3.0,2020-03-03 17:48:08.080000-06:00,2020-03-03 17:00
1583279288130.0,0.0,0.0,91.37941247480605,0.6785888671875,0.66033935546875,0.27569580078125,0.16583251953125,0.0390625,0.0625,-0.015625,0.00567626953125,3.0,2020-03-03 17:48:08.130000-06:00,2020-03-03 17:00
1583279288180.0,0.0,0.0,91.38006537405563,0.67864990234375,0.660400390625,0.27557373046875,0.16558837890625,0.0390625,-0.08203125,-0.0625,0.0121612548828125,3.0,2020-03-03 17:48:08.180000-06:00,2020-03-03 17:00
1583279288230.0,0.0,0.0,91.36325039295131,0.67877197265625,0.660400390625,0.2752685546875,0.16546630859375,0.046875,0.0703125,0.01171875,0.0072784423828125,3.0,2020-03-03 17:48:08.230000-06:00,2020-03-03 17:00
1583279288280.0,0.0,0.0,91.36170398511463,0.67877197265625,0.66046142578125,0.275146484375,0.16558837890625,-0.046875,-0.07421875,-0.0625,0.0116119384765625,3.0,2020-03-03 17:48:08.280000-06:00,2020-03-03 17:00
1583279288330.0,0.0,0.0,91.388382489268,0.67852783203125,0.6605224609375,0.275390625,0.16583251953125,-0.0703125,0.078125,0.01953125,0.0114288330078125,3.0,2020-03-03 17:48:08.330000-06:00,2020-03-03 17:00
1583279288380.0,0.0,0.0,91.40446254198021,0.67840576171875,0.66033935546875,0.2760009765625,0.165771484375,0.0078125,0.03515625,0.01953125,0.001678466796875,3.0,2020-03-03 17:48:08.380000-06:00,2020-03-03 17:00
1583279288430.0,0.0,0.0,91.399411172244,0.67840576171875,0.66046142578125,0.27569580078125,0.166015625,0.0625,0.00390625,0.01953125,0.004302978515625,3.0,2020-03-03 17:48:08.430000-06:00,2020-03-03 17:00
1583279288480.0,0.0,0.0,91.40412861619166,0.6783447265625,0.66058349609375,0.2755126953125,0.16619873046875,0.0078125,0.03515625,-0.015625,0.0015411376953125,3.0,2020-03-03 17:48:08.480000-06:00,2020-03-03 17:00
1583279288530.0,0.0,0.0,91.43688389048289,0.67816162109375,0.66064453125,0.27587890625,0.16607666015625,0.046875,-0.00390625,-0.015625,0.0024566650390625,3.0,2020-03-03 17:48:08.530000-06:00,2020-03-03 17:00
1583279288580.0,0.0,0.0,91.42635058528653,0.67822265625,0.66064453125,0.27569580078125,0.16607666015625,0.0,0.04296875,0.02734375,0.002593994140625,3.0,2020-03-03 17:48:08.580000-06:00,2020-03-03 17:00
1583279288630.0,0.0,0.0,91.40827920611149,0.67840576171875,0.66058349609375,0.27557373046875,0.16583251953125,0.07421875,0.00390625,-0.015625,0.005767822265625,3.0,2020-03-03 17:48:08.630000-06:00,2020-03-03 17:00
1583279288680.0,0.0,0.0,91.3887757675222,0.67852783203125,0.66046142578125,0.2755126953125,0.165771484375,-0.0390625,0.03515625,0.01953125,0.003143310546875,3.0,2020-03-03 17:48:08.680000-06:00,2020-03-03 17:00
1583279288730.0,0.0,0.0,91.43202951979364,0.67828369140625,0.6607666015625,0.2755126953125,0.16571044921875,-0.0390625,-0.00390625,-0.0625,0.0054473876953125,3.0,2020-03-03 17:48:08.730000-06:00,2020-03-03 17:00
1583279288780.0,0.0,0.0,91.47606533691628,0.67803955078125,0.6610107421875,0.27557373046875,0.16546630859375,0.0,0.109375,0.05859375,0.0153961181640625,3.0,2020-03-03 17:48:08.780000-06:00,2020-03-03 17:00
1583279288830.0,0.0,0.0,91.45192746645434,0.67816162109375,0.66094970703125,0.27532958984375,0.16558837890625,0.0078125,-0.08203125,-0.046875,0.0089874267578125,3.0,2020-03-03 17:48:08.830000-06:00,2020-03-03 17:00
1583279288880.0,0.0,0.0,91.43153204132393,0.6783447265625,0.660888671875,0.27520751953125,0.16546630859375,0.0,0.03515625,-0.0078125,0.0012969970703125,3.0,2020-03-03 17:48:08.880000-06:00,2020-03-03 17:00
1583279288930.0,0.0,0.0,91.44014227729677,0.67828369140625,0.6610107421875,0.27496337890625,0.16534423828125,0.0078125,0.03515625,-0.0078125,0.0013580322265625,3.0,2020-03-03 17:48:08.930000-06:00,2020-03-03 17:00
1583279288980.0,0.0,0.0,91.40580336979583,0.67852783203125,0.66107177734375,0.2742919921875,0.165283203125,0.03125,0.02734375,-0.0078125,0.0017852783203125,3.0,2020-03-03 17:48:08.980000-06:00,2020-03-03 17:00
1583279289030.0,0.0,0.0,91.3465822054096,0.67889404296875,0.66094970703125,0.273681640625,0.1654052734375,-0.0078125,-0.08984375,-0.015625,0.0083770751953125,3.0,2020-03-03 17:48:09.030000-06:00,2020-03-03 17:00
1583279289080.0,0.0,0.0,91.31738443490481,0.6790771484375,0.660888671875,0.2733154296875,0.16534423828125,-0.015625,-0.00390625,0.01171875,0.000396728515625,3.0,2020-03-03 17:48:09.080000-06:00,2020-03-03 17:00
1583279289130.0,0.0,0.0,91.28940543634724,0.67926025390625,0.66094970703125,0.27276611328125,0.1654052734375,0.0234375,0.02734375,0.03515625,0.002532958984375,3.0,2020-03-03 17:48:09.130000-06:00,2020-03-03 17:00
1583279289180.0,0.0,0.0,91.25908214262292,0.679443359375,0.660888671875,0.27239990234375,0.1654052734375,0.015625,-0.01171875,-0.0390625,0.0019073486328125,3.0,2020-03-03 17:48:09.180000-06:00,2020-03-03 17:00
1583279289230.0,0.0,0.0,91.23885143843357,0.6796875,0.66070556640625,0.2725830078125,0.1650390625,0.015625,0.02734375,0.02734375,0.001739501953125,3.0,2020-03-03 17:48:09.230000-06:00,2020-03-03 17:00
1583279289280.0,0.0,0.0,91.16510160582459,0.6800537109375,0.66046142578125,0.27191162109375,0.16534423828125,-0.015625,-0.01953125,0.01171875,0.000762939453125,3.0,2020-03-03 17:48:09.280000-06:00,2020-03-03 17:00
1583279289330.0,0.0,0.0,91.1880678366528,0.6800537109375,0.66046142578125,0.27227783203125,0.16473388671875,0.015625,0.140625,0.00390625,0.0200347900390625,3.0,2020-03-03 17:48:09.330000-06:00,2020-03-03 17:00
1583279289380.0,0.0,0.0,91.13073117193971,0.6805419921875,0.66009521484375,0.272216796875,0.1641845703125,0.06640625,0.1328125,0.01171875,0.022186279296875,3.0,2020-03-03 17:48:09.380000-06:00,2020-03-03 17:00
1583279289430.0,0.0,0.0,91.06261551496391,0.6810302734375,0.65966796875,0.272216796875,0.1640625,-0.0078125,-0.13671875,-0.00390625,0.018768310546875,3.0,2020-03-03 17:48:09.430000-06:00,2020-03-03 17:00
1583279289480.0,0.0,0.0,91.01405599381478,0.681396484375,0.659423828125,0.2720947265625,0.1639404296875,-0.078125,0.0625,0.02734375,0.0107574462890625,3.0,2020-03-03 17:48:09.480000-06:00,2020-03-03 17:00
1583279289530.0,0.0,0.0,91.04495969142494,0.68121337890625,0.65972900390625,0.2718505859375,0.16387939453125,0.0390625,0.02734375,0.05078125,0.004852294921875,3.0,2020-03-03 17:48:09.530000-06:00,2020-03-03 17:00
1583279289580.0,0.0,0.0,91.1256737170877,0.68072509765625,0.66015625,0.27203369140625,0.16363525390625,-0.03125,0.1328125,0.04296875,0.0204620361328125,3.0,2020-03-03 17:48:09.580000-06:00,2020-03-03 17:00
1583279289630.0,0.0,0.0,91.10068117986789,0.68096923828125,0.65985107421875,0.27239990234375,0.163330078125,0.0078125,-0.02734375,0.01953125,0.001190185546875,3.0,2020-03-03 17:48:09.630000-06:00,2020-03-03 17:00
1583279289680.0,0.0,0.0,91.0829909796191,0.68109130859375,0.65960693359375,0.27276611328125,0.16339111328125,0.015625,-0.1796875,-0.06640625,0.0369415283203125,3.0,2020-03-03 17:48:09.680000-06:00,2020-03-03 17:00
1583279289730.0,0.0,0.0,91.10661067061544,0.68096923828125,0.6595458984375,0.27325439453125,0.1632080078125,-0.015625,0.109375,0.05078125,0.0147857666015625,3.0,2020-03-03 17:48:09.730000-06:00,2020-03-03 17:00
1583279289780.0,0.0,0.0,91.14524199615326,0.68072509765625,0.65972900390625,0.2734375,0.1632080078125,0.0703125,0.02734375,-0.01171875,0.005828857421875,3.0,2020-03-03 17:48:09.780000-06:00,2020-03-03 17:00
1583279289830.0,0.0,0.0,91.17676787067877,0.6805419921875,0.6597900390625,0.2738037109375,0.16314697265625,0.03125,0.02734375,-0.01171875,0.001861572265625,3.0,2020-03-03 17:48:09.830000-06:00,2020-03-03 17:00
1583279289880.0,0.0,0.0,91.15111713847858,0.6806640625,0.65960693359375,0.2738037109375,0.16326904296875,-0.0078125,-0.08984375,-0.04296875,0.009979248046875,3.0,2020-03-03 17:48:09.880000-06:00,2020-03-03 17:00
1583279289930.0,0.0,0.0,91.20430289239825,0.6802978515625,0.659912109375,0.27392578125,0.16339111328125,-0.0078125,0.03515625,0.03515625,0.002532958984375,3.0,2020-03-03 17:48:09.930000-06:00,2020-03-03 17:00
1583279289980.0,0.0,0.0,91.21686940339752,0.68017578125,0.6597900390625,0.27435302734375,0.1634521484375,0.0234375,-0.00390625,-0.03515625,0.001800537109375,3.0,2020-03-03 17:48:09.980000-06:00,2020-03-03 17:00
1583279290030.0,0.0,0.0,91.23371543472551,0.6800537109375,0.65966796875,0.2750244140625,0.1636962890625,0.0,-0.11328125,-0.0625,0.0167388916015625,3.0,2020-03-03 17:48:10.030000-06:00,2020-03-03 17:00
1583279290080.0,0.0,0.0,91.23620454963526,0.67999267578125,0.659423828125,0.27557373046875,0.16375732421875,0.0078125,0.01171875,-0.02734375,0.000946044921875,3.0,2020-03-03 17:48:10.080000-06:00,2020-03-03 17:00
1583279290130.0,0.0,0.0,91.25283998448678,0.679931640625,0.6595458984375,0.2755126953125,0.16351318359375,0.046875,-0.02734375,-0.01953125,0.003326416015625,3.0,2020-03-03 17:48:10.130000-06:00,2020-03-03 17:00
1583279290180.0,0.0,0.0,91.28153038075807,0.6798095703125,0.6597900390625,0.275390625,0.16326904296875,0.0,0.1328125,0.05859375,0.0210723876953125,3.0,2020-03-03 17:48:10.180000-06:00,2020-03-03 17:00
1583279290230.0,0.0,0.0,91.2897824729104,0.67974853515625,0.6597900390625,0.27557373046875,0.16339111328125,-0.11328125,-0.10546875,-0.01953125,0.0243377685546875,3.0,2020-03-03 17:48:10.230000-06:00,2020-03-03 17:00
1583279290280.0,0.0,0.0,91.2977416723113,0.67950439453125,0.65985107421875,0.2755126953125,0.16412353515625,-0.11328125,0.05078125,-0.046875,0.017608642578125,3.0,2020-03-03 17:48:10.280000-06:00,2020-03-03 17:00
1583279290330.0,0.0,0.0,91.3534215500603,0.6790771484375,0.65997314453125,0.27618408203125,0.16455078125,-0.0703125,0.01171875,-0.0390625,0.0066070556640625,3.0,2020-03-03 17:48:10.330000-06:00,2020-03-03 17:00
1583279290380.0,0.0,0.0,91.40255954993755,0.67864990234375,0.6600341796875,0.27679443359375,0.16497802734375,0.0546875,0.1171875,0.00390625,0.0167388916015625,3.0,2020-03-03 17:48:10.380000-06:00,2020-03-03 17:00
1583279290430.0,0.0,0.0,91.3985236234304,0.6785888671875,0.65985107421875,0.277099609375,0.16522216796875,0.0546875,-0.07421875,-0.0546875,0.0114898681640625,3.0,2020-03-03 17:48:10.430000-06:00,2020-03-03 17:00
1583279290480.0,0.0,0.0,91.37397044482478,0.6787109375,0.6597900390625,0.27691650390625,0.16546630859375,0.046875,-0.06640625,-0.015625,0.0068511962890625,3.0,2020-03-03 17:48:10.480000-06:00,2020-03-03 17:00
1583279290530.0,0.0,0.0,91.38276600467474,0.6787109375,0.65997314453125,0.276611328125,0.16522216796875,0.03125,0.01171875,-0.0078125,0.0011749267578125,3.0,2020-03-03 17:48:10.530000-06:00,2020-03-03 17:00
1583279290580.0,0.0,0.0,91.36784201097707,0.6788330078125,0.65997314453125,0.2763671875,0.16510009765625,0.0625,-0.02734375,-0.046875,0.0068511962890625,3.0,2020-03-03 17:48:10.580000-06:00,2020-03-03 17:00
1583279290630.0,0.0,0.0,91.35657157499055,0.67889404296875,0.65985107421875,0.2764892578125,0.1651611328125,-0.0625,0.01171875,0.01953125,0.004425048828125,3.0,2020-03-03 17:48:10.630000-06:00,2020-03-03 17:00
1583279290680.0,0.0,0.0,91.33878874069792,0.678955078125,0.65960693359375,0.2767333984375,0.165283203125,-0.09375,0.00390625,-0.0546875,0.0117950439453125,3.0,2020-03-03 17:48:10.680000-06:00,2020-03-03 17:00
1583279290730.0,0.0,0.0,91.36374444089418,0.6788330078125,0.65966796875,0.27703857421875,0.16522216796875,0.0234375,0.01171875,0.10546875,0.011810302734375,3.0,2020-03-03 17:48:10.730000-06:00,2020-03-03 17:00
1583279290780.0,0.0,0.0,91.38396398481892,0.67877197265625,0.65966796875,0.27734375,0.1649169921875,0.03125,0.0859375,0.05859375,0.0117950439453125,3.0,2020-03-03 17:48:10.780000-06:00,2020-03-03 17:00
1583279290830.0,0.0,0.0,91.41605176075527,0.6785888671875,0.65966796875,0.27783203125,0.164794921875,0.0,-0.03515625,-0.0546875,0.0042266845703125,3.0,2020-03-03 17:48:10.830000-06:00,2020-03-03 17:00
1583279290880.0,0.0,0.0,91.43906233965352,0.6783447265625,0.65960693359375,0.2783203125,0.1651611328125,-0.0703125,0.00390625,0.01953125,0.005340576171875,3.0,2020-03-03 17:48:10.880000-06:00,2020-03-03 17:00
1583279291000.0,0.0,0.0,91.45901201800255,0.67822265625,0.65966796875,0.27850341796875,0.1651611328125,0.015625,0.01171875,-0.046875,0.0025787353515625,3.0,2020-03-03 17:48:11-06:00,2020-03-03 17:00
1583279291030.0,0.0,0.0,91.44219667965942,0.67840576171875,0.65985107421875,0.27777099609375,0.164794921875,-0.078125,-0.02734375,0.01953125,0.007232666015625,3.0,2020-03-03 17:48:11.030000-06:00,2020-03-03 17:00
1583279291080.0,0.0,0.0,91.43745012052901,0.678466796875,0.65985107421875,0.27777099609375,0.164794921875,-0.078125,-0.02734375,0.01953125,0.007232666015625,3.0,2020-03-03 17:48:11.080000-06:00,2020-03-03 17:00
1583279291130.0,0.0,0.0,91.45485023360013,0.67828369140625,0.65985107421875,0.27801513671875,0.1650390625,-0.11328125,0.01171875,-0.0546875,0.015960693359375,3.0,2020-03-03 17:48:11.130000-06:00,2020-03-03 17:00
1583279291180.0,0.0,0.0,91.47236172162016,0.67803955078125,0.65985107421875,0.27825927734375,0.16552734375,-0.0625,0.09375,0.02734375,0.0134429931640625,3.0,2020-03-03 17:48:11.180000-06:00,2020-03-03 17:00
1583279291240.0,0.0,0.0,91.4439105334753,0.67822265625,0.65966796875,0.2783203125,0.1656494140625,0.0546875,-0.09765625,-0.078125,0.0186309814453125,3.0,2020-03-03 17:48:11.240000-06:00,2020-03-03 17:00
1583279291280.0,0.0,0.0,91.4363074120734,0.67828369140625,0.6597900390625,0.27783203125,0.16546630859375,0.14453125,0.01953125,0.0,0.021270751953125,3.0,2020-03-03 17:48:11.280000-06:00,2020-03-03 17:00
1583279291330.0,0.0,0.0,91.37851297721248,0.67877197265625,0.65972900390625,0.277099609375,0.1650390625,0.14453125,0.01953125,0.0,0.021270751953125,3.0,2020-03-03 17:48:11.330000-06:00,2020-03-03 17:00
1583279291370.0,0.0,0.0,91.36193883920237,0.67889404296875,0.659912109375,0.2763671875,0.1649169921875,-0.015625,-0.05859375,-0.0078125,0.0037384033203125,3.0,2020-03-03 17:48:11.370000-06:00,2020-03-03 17:00
1583279291430.0,0.0,0.0,91.37511675235572,0.6788330078125,0.66009521484375,0.276123046875,0.164794921875,-0.109375,0.09375,0.05078125,0.0233306884765625,3.0,2020-03-03 17:48:11.430000-06:00,2020-03-03 17:00
1583279291470.0,0.0,0.0,91.33526318977378,0.67913818359375,0.65972900390625,0.2764892578125,0.164794921875,-0.0234375,-0.05859375,-0.0234375,0.0045318603515625,3.0,2020-03-03 17:48:11.470000-06:00,2020-03-03 17:00
1583279291550.0,0.0,0.0,91.27227936700555,0.679443359375,0.6593017578125,0.2764892578125,0.1651611328125,-0.11328125,-0.05859375,-0.03125,0.017242431640625,3.0,2020-03-03 17:48:11.550000-06:00,2020-03-03 17:00
1583279291580.0,0.0,0.0,91.2597642591046,0.67950439453125,0.65936279296875,0.27606201171875,0.16510009765625,0.10546875,0.1328125,0.07421875,0.034271240234375,3.0,2020-03-03 17:48:11.580000-06:00,2020-03-03 17:00
1583279291620.0,0.0,0.0,91.2481247503335,0.6796875,0.6595458984375,0.27545166015625,0.1646728515625,0.10546875,0.1328125,0.07421875,0.034271240234375,3.0,2020-03-03 17:48:11.620000-06:00,2020-03-03 17:00
1583279291680.0,0.0,0.0,91.20647601377657,0.6800537109375,0.65948486328125,0.27496337890625,0.164306640625,0.015625,-0.10546875,-0.01953125,0.011749267578125,3.0,2020-03-03 17:48:11.680000-06:00,2020-03-03 17:00
1583279291720.0,0.0,0.0,91.19418687395277,0.6800537109375,0.659423828125,0.27490234375,0.16461181640625,-0.13671875,0.00390625,0.00390625,0.0187225341796875,3.0,2020-03-03 17:48:11.720000-06:00,2020-03-03 17:00
1583279291800.0,0.0,0.0,91.20241136660452,0.67999267578125,0.659423828125,0.27508544921875,0.16473388671875,-0.17578125,0.05078125,-0.04296875,0.0353240966796875,3.0,2020-03-03 17:48:11.800000-06:00,2020-03-03 17:00
1583279291830.0,0.0,0.0,91.18727002722841,0.6800537109375,0.65936279296875,0.27490234375,0.16473388671875,0.0703125,0.0703125,0.04296875,0.0117340087890625,3.0,2020-03-03 17:48:11.830000-06:00,2020-03-03 17:00
1583279291870.0,0.0,0.0,91.13511829166306,0.68048095703125,0.6591796875,0.27459716796875,0.16448974609375,0.0703125,0.0703125,0.04296875,0.0117340087890625,3.0,2020-03-03 17:48:11.870000-06:00,2020-03-03 17:00
1583279291930.0,0.0,0.0,91.06917704706129,0.6810302734375,0.6588134765625,0.2744140625,0.1639404296875,-0.015625,-0.1875,-0.04296875,0.0372467041015625,3.0,2020-03-03 17:48:11.930000-06:00,2020-03-03 17:00
1583279291970.0,0.0,0.0,91.0712717192235,0.68096923828125,0.658935546875,0.27410888671875,0.1640625,0.03125,0.0859375,0.01953125,0.0087432861328125,3.0,2020-03-03 17:48:11.970000-06:00,2020-03-03 17:00
1583279292020.0,0.0,0.0,91.08370849118148,0.680908203125,0.658935546875,0.27435302734375,0.1640625,-0.12109375,0.04296875,0.05859375,0.0199432373046875,3.0,2020-03-03 17:48:12.020000-06:00,2020-03-03 17:00
1583279292100.0,0.0,0.0,91.11108037233672,0.68072509765625,0.65875244140625,0.27520751953125,0.1640625,-0.078125,0.03515625,0.01171875,0.007476806640625,3.0,2020-03-03 17:48:12.100000-06:00,2020-03-03 17:00
1583279292130.0,0.0,0.0,91.13324239688365,0.68048095703125,0.6588134765625,0.27545166015625,0.16455078125,0.046875,0.04296875,0.05859375,0.007476806640625,3.0,2020-03-03 17:48:12.130000-06:00,2020-03-03 17:00
1583279292170.0,0.0,0.0,91.14639033788492,0.68048095703125,0.65863037109375,0.276123046875,0.16424560546875,0.046875,0.04296875,0.05859375,0.007476806640625,3.0,2020-03-03 17:48:12.170000-06:00,2020-03-03 17:00
1583279292220.0,0.0,0.0,91.1845798505577,0.68011474609375,0.6588134765625,0.2762451171875,0.1646728515625,0.0625,0.04296875,0.01953125,0.006134033203125,3.0,2020-03-03 17:48:12.220000-06:00,2020-03-03 17:00
1583279292270.0,0.0,0.0,91.1949146607122,0.67999267578125,0.65875244140625,0.2764892578125,0.164794921875,0.015625,0.078125,0.02734375,0.0070953369140625,3.0,2020-03-03 17:48:12.270000-06:00,2020-03-03 17:00
1583279292320.0,0.0,0.0,91.16101054688457,0.68017578125,0.65863037109375,0.27630615234375,0.1650390625,-0.0625,-0.1875,0.11328125,0.0518951416015625,3.0,2020-03-03 17:48:12.320000-06:00,2020-03-03 17:00
1583279292400.0,0.0,0.0,91.1925538911037,0.6798095703125,0.65887451171875,0.27618408203125,0.1656494140625,0.046875,0.125,-0.05078125,0.0204010009765625,3.0,2020-03-03 17:48:12.400000-06:00,2020-03-03 17:00
1583279292430.0,0.0,0.0,91.22592807900469,0.67950439453125,0.65899658203125,0.2764892578125,0.1661376953125,0.03125,-0.00390625,-0.0703125,0.0059356689453125,3.0,2020-03-03 17:48:12.430000-06:00,2020-03-03 17:00
1583279292470.0,0.0,0.0,91.25070183845637,0.67926025390625,0.6590576171875,0.27667236328125,0.1663818359375,0.03125,-0.00390625,-0.0703125,0.0059356689453125,3.0,2020-03-03 17:48:12.470000-06:00,2020-03-03 17:00
1583279292520.0,0.0,0.0,91.29180578955538,0.678955078125,0.6591796875,0.27703857421875,0.16656494140625,0.10546875,0.0625,0.01953125,0.015411376953125,3.0,2020-03-03 17:48:12.520000-06:00,2020-03-03 17:00
1583279292570.0,0.0,0.0,91.34392367530121,0.6785888671875,0.65924072265625,0.2777099609375,0.16668701171875,0.0546875,0.02734375,-0.046875,0.0059356689453125,3.0,2020-03-03 17:48:12.570000-06:00,2020-03-03 17:00
1583279292630.0,0.0,0.0,91.40135152549921,0.67822265625,0.65948486328125,0.278076171875,0.166748046875,-0.0625,-0.00390625,0.00390625,0.003936767578125,3.0,2020-03-03 17:48:12.630000-06:00,2020-03-03 17:00
1583279292680.0,0.0,0.0,91.45182135101143,0.67822265625,0.6591796875,0.279541015625,0.16534423828125,0.27734375,0.00390625,-0.046875,0.079132080078125,3.0,2020-03-03 17:48:12.680000-06:00,2020-03-03 17:00
1583279292720.0,0.0,0.0,91.4686736989668,0.67852783203125,0.65863037109375,0.2811279296875,0.1636962890625,0.27734375,0.00390625,-0.046875,0.079132080078125,3.0,2020-03-03 17:48:12.720000-06:00,2020-03-03 17:00
1583279292770.0,0.0,0.0,91.6063104009614,0.67803955078125,0.65869140625,0.2830810546875,0.1619873046875,0.0078125,-0.1796875,0.07421875,0.0378570556640625,3.0,2020-03-03 17:48:12.770000-06:00,2020-03-03 17:00
1583279292820.0,0.0,0.0,92.0636337006646,0.6759033203125,0.65966796875,0.28778076171875,0.15850830078125,-0.06640625,0.32421875,0.08984375,0.1175994873046875,3.0,2020-03-03 17:48:12.820000-06:00,2020-03-03 17:00
1583279292870.0,0.0,0.0,92.85901814569763,0.67205810546875,0.660400390625,0.2979736328125,0.15289306640625,0.09375,0.4921875,0.20703125,0.2938995361328125,3.0,2020-03-03 17:48:12.870000-06:00,2020-03-03 17:00
1583279292920.0,0.0,0.0,93.63138000196086,0.66845703125,0.65869140625,0.312744140625,0.14666748046875,0.08203125,0.1484375,0.21875,0.0766143798828125,3.0,2020-03-03 17:48:12.920000-06:00,2020-03-03 17:00
1583279292980.0,0.0,0.0,93.9269373504903,0.666259765625,0.65240478515625,0.32952880859375,0.14776611328125,0.2109375,-0.24609375,-0.0390625,0.1065826416015625,3.0,2020-03-03 17:48:12.980000-06:00,2020-03-03 17:00
1583279293020.0,0.0,0.0,94.24822966683917,0.66302490234375,0.63677978515625,0.3626708984375,0.15277099609375,-0.51953125,-0.546875,-0.03125,0.5699615478515625,3.0,2020-03-03 17:48:13.020000-06:00,2020-03-03 17:00
1583279293070.0,0.0,0.0,93.86455459650064,0.660888671875,0.60931396484375,0.403076171875,0.17193603515625,-0.98828125,-0.25390625,-0.29296875,1.1269989013671875,3.0,2020-03-03 17:48:13.070000-06:00,2020-03-03 17:00
1583279293120.0,0.0,0.0,92.11216517395808,0.66265869140625,0.5770263671875,0.4306640625,0.2060546875,-0.1875,-0.7109375,-0.5546875,0.8482666015625,3.0,2020-03-03 17:48:13.120000-06:00,2020-03-03 17:00
1583279293170.0,0.0,0.0,88.96109413781593,0.66766357421875,0.5413818359375,0.44476318359375,0.25152587890625,-0.20703125,-0.35546875,0.0859375,0.176605224609375,3.0,2020-03-03 17:48:13.170000-06:00,2020-03-03 17:00
1583279293220.0,0.0,0.0,86.31712671446331,0.668701171875,0.52496337890625,0.43853759765625,0.29150390625,0.609375,-0.43359375,-1.03515625,1.630889892578125,3.0,2020-03-03 17:48:13.220000-06:00,2020-03-03 17:00
1583279293270.0,0.0,0.0,85.02327141650993,0.6551513671875,0.525146484375,0.42523193359375,0.33782958984375,0.06640625,0.66796875,-0.0390625,0.452117919921875,3.0,2020-03-03 17:48:13.270000-06:00,2020-03-03 17:00
1583279293320.0,0.0,0.0,84.24043649508387,0.64678955078125,0.52301025390625,0.41986083984375,0.36309814453125,-0.4296875,-1.91796875,-2.703125,11.170120239257812,3.0,2020-03-03 17:48:13.320000-06:00,2020-03-03 17:00
1583279293370.0,0.0,0.0,80.75275073706145,0.677490234375,0.5050048828125,0.40576171875,0.348388671875,1.01171875,1.55859375,-0.015625,3.453033447265625,3.0,2020-03-03 17:48:13.370000-06:00,2020-03-03 17:00
1583279293420.0,0.0,0.0,76.18847612441819,0.721923828125,0.480712890625,0.38671875,0.3133544921875,2.6328125,0.96484375,-3.55859375,20.52621459960937,3.0,2020-03-03 17:48:13.420000-06:00,2020-03-03 17:00
1583279293470.0,0.0,0.0,75.47447511033856,0.73846435546875,0.4534912109375,0.4110107421875,0.282958984375,2.22265625,0.05859375,-1.58984375,7.4712371826171875,3.0,2020-03-03 17:48:13.470000-06:00,2020-03-03 17:00
1583279293520.0,0.0,0.0,72.92134523653219,0.743896484375,0.4378662109375,0.40179443359375,0.30572509765625,-0.21875,-1.25390625,-0.3125,1.7177886962890625,3.0,2020-03-03 17:48:13.520000-06:00,2020-03-03 17:00
1583279293570.0,0.0,0.0,70.81841362151137,0.74066162109375,0.43450927734375,0.38330078125,0.34014892578125,0.19140625,1.78125,-1.296875,4.891372680664063,3.0,2020-03-03 17:48:13.570000-06:00,2020-03-03 17:00
1583279293620.0,0.0,0.0,67.87440130072139,0.72674560546875,0.440673828125,0.3427734375,0.40020751953125,-1.3828125,-1.125,-2.26171875,8.293167114257812,3.0,2020-03-03 17:48:13.620000-06:00,2020-03-03 17:00
1583279293670.0,0.0,0.0,67.0006744456592,0.719482421875,0.4449462890625,0.3265380859375,0.4215087890625,0.6640625,-0.25390625,-0.43359375,0.693450927734375,3.0,2020-03-03 17:48:13.670000-06:00,2020-03-03 17:00
1583279293720.0,0.0,0.0,68.09833826512313,0.69342041015625,0.4671630859375,0.30859375,0.4534912109375,1.14453125,0.890625,-1.56640625,4.556793212890625,3.0,2020-03-03 17:48:13.720000-06:00,2020-03-03 17:00
1583279293770.0,0.0,0.0,66.7061182341765,0.6903076171875,0.44891357421875,0.31744384765625,0.4703369140625,-2.06640625,-1.234375,-1.01171875,6.817291259765625,3.0,2020-03-03 17:48:13.770000-06:00,2020-03-03 17:00
1583279293820.0,0.0,0.0,67.67367131122077,0.7012939453125,0.39556884765625,0.391845703125,0.445068359375,-2.265625,6.359375,1.09765625,46.77955627441406,3.0,2020-03-03 17:48:13.820000-06:00,2020-03-03 17:00
1583279293870.0,0.0,0.0,74.76323753948573,0.666259765625,0.411376953125,0.44647216796875,0.4329833984375,-1.94140625,5.40234375,-0.37109375,33.092086791992195,3.0,2020-03-03 17:48:13.870000-06:00,2020-03-03 17:00
1583279293920.0,0.0,0.0,82.00541582482066,0.61663818359375,0.43060302734375,0.4949951171875,0.43505859375,2.1484375,1.0625,-0.13671875,5.7633819580078125,3.0,2020-03-03 17:48:13.920000-06:00,2020-03-03 17:00
1583279293970.0,0.0,0.0,79.20022199148683,0.63543701171875,0.40423583984375,0.49285888671875,0.435791015625,3.56640625,-1.515625,0.046875,15.018569946289062,3.0,2020-03-03 17:48:13.970000-06:00,2020-03-03 17:00
1583279294020.0,0.0,0.0,74.17755817480172,0.67791748046875,0.35101318359375,0.4903564453125,0.42041015625,5.55859375,-2.9296875,-0.734375,40.02033996582031,3.0,2020-03-03 17:48:14.020000-06:00,2020-03-03 17:00
1583279294070.0,0.0,0.0,76.02314210765933,0.679931640625,0.34783935546875,0.5081787109375,0.3980712890625,0.609375,0.07421875,-2.00390625,4.392486572265625,3.0,2020-03-03 17:48:14.070000-06:00,2020-03-03 17:00
1583279294120.0,0.0,0.0,84.06046038001057,0.61822509765625,0.36798095703125,0.559326171875,0.4117431640625,-3.84765625,5.18359375,-1.73828125,44.69572448730469,3.0,2020-03-03 17:48:14.120000-06:00,2020-03-03 17:00
1583279294170.0,0.0,0.0,90.18233476897413,0.545166015625,0.40960693359375,0.5777587890625,0.44854736328125,-1.47265625,-0.359375,-1.72265625,5.265411376953125,3.0,2020-03-03 17:48:14.170000-06:00,2020-03-03 17:00
1583279294220.0,0.0,0.0,95.70628686554056,0.49346923828125,0.4095458984375,0.6180419921875,0.4547119140625,-0.0234375,-0.29296875,-0.890625,0.8795928955078125,3.0,2020-03-03 17:48:14.220000-06:00,2020-03-03 17:00
1583279294270.0,0.0,0.0,93.18727199409716,0.49481201171875,0.40350341796875,0.6041259765625,0.476806640625,3.08984375,-2.93359375,-2.453125,24.170928955078125,3.0,2020-03-03 17:48:14.270000-06:00,2020-03-03 17:00
1583279294320.0,0.0,0.0,91.50227607601423,0.49774169921875,0.36920166015625,0.61383056640625,0.489013671875,3.84375,-3.48046875,-2.65234375,33.923004150390625,3.0,2020-03-03 17:48:14.320000-06:00,2020-03-03 17:00
1583279294370.0,0.0,0.0,91.10995595468988,0.49066162109375,0.3255615234375,0.6353759765625,0.49957275390625,0.73828125,-0.7734375,-2.296875,6.4188995361328125,3.0,2020-03-03 17:48:14.370000-06:00,2020-03-03 17:00
1583279294420.0,0.0,0.0,89.96793780970215,0.5048828125,0.29901123046875,0.64056396484375,0.495361328125,2.2265625,0.55859375,-2.43359375,11.191986083984377,3.0,2020-03-03 17:48:14.420000-06:00,2020-03-03 17:00
1583279294470.0,0.0,0.0,89.12877302342605,0.50714111328125,0.29522705078125,0.6365966796875,0.50042724609375,3.90625,0.203125,-2.58984375,22.007339477539066,3.0,2020-03-03 17:48:14.470000-06:00,2020-03-03 17:00
1583279294520.0,0.0,0.0,86.98958805848434,0.5196533203125,0.301025390625,0.61895751953125,0.50616455078125,0.234375,1.34375,-3.0,10.860595703125,3.0,2020-03-03 17:48:14.520000-06:00,2020-03-03 17:00
1583279294570.0,0.0,0.0,84.23068489985924,0.542724609375,0.31036376953125,0.594482421875,0.50567626953125,1.56640625,-0.6015625,-2.5390625,9.262344360351562,3.0,2020-03-03 17:48:14.570000-06:00,2020-03-03 17:00
1583279294620.0,0.0,0.0,78.39442719053733,0.5863037109375,0.28411865234375,0.56451416015625,0.50677490234375,4.20703125,-0.36328125,-2.3828125,23.50888061523437,3.0,2020-03-03 17:48:14.620000-06:00,2020-03-03 17:00
1583279294670.0,0.0,0.0,74.20808051817683,0.60406494140625,0.30181884765625,0.5223388671875,0.520751953125,0.55078125,1.44921875,-1.796875,5.632354736328125,3.0,2020-03-03 17:48:14.670000-06:00,2020-03-03 17:00
1583279294720.0,0.0,0.0,74.52676320403609,0.594482421875,0.3240966796875,0.51141357421875,0.52911376953125,1.33203125,1.5625,-1.44140625,6.293365478515625,3.0,2020-03-03 17:48:14.720000-06:00,2020-03-03 17:00
1583279294770.0,0.0,0.0,73.5049355622039,0.63140869140625,0.33343505859375,0.496826171875,0.49322509765625,-2.53125,2.140625,-1.421875,13.01123046875,3.0,2020-03-03 17:48:14.770000-06:00,2020-03-03 17:00
1583279294820.0,0.0,0.0,71.04794276696308,0.6490478515625,0.36346435546875,0.45330810546875,0.49102783203125,2.34765625,-1.91796875,-1.2421875,10.733123779296877,3.0,2020-03-03 17:48:14.820000-06:00,2020-03-03 17:00
1583279294870.0,0.0,0.0,69.16960660373627,0.66717529296875,0.37921142578125,0.42236328125,0.48236083984375,-1.79296875,4.42578125,-0.78515625,23.41874694824219,3.0,2020-03-03 17:48:14.870000-06:00,2020-03-03 17:00
1583279294920.0,0.0,0.0,69.4723497763666,0.66827392578125,0.39910888671875,0.40667724609375,0.478271484375,0.84375,0.6484375,-0.5625,1.44879150390625,3.0,2020-03-03 17:48:14.920000-06:00,2020-03-03 17:00
1583279294970.0,0.0,0.0,72.64145629440522,0.70587158203125,0.54888916015625,0.22259521484375,0.38848876953125,-1.875,2.1875,-0.27734375,8.377700805664062,3.0,2020-03-03 17:48:14.970000-06:00,2020-03-03 17:00
1583279295020.0,0.0,0.0,73.9287479612317,0.7669677734375,0.59991455078125,-0.0413818359375,0.22406005859375,-2.2734375,0.8515625,-3.859375,20.7884521484375,3.0,2020-03-03 17:48:15.020000-06:00,2020-03-03 17:00
1583279295070.0,0.0,0.0,75.24456832361308,0.7454833984375,0.6090087890625,0.04193115234375,0.267578125,-3.3828125,-11.01953125,2.58203125,139.54037475585938,3.0,2020-03-03 17:48:15.070000-06:00,2020-03-03 17:00
1583279295120.0,0.0,0.0,79.29397828275536,0.72015380859375,0.63311767578125,0.0794677734375,0.2725830078125,-2.890625,8.28515625,6.19921875,115.42984008789062,3.0,2020-03-03 17:48:15.120000-06:00,2020-03-03 17:00
1583279295170.0,0.0,0.0,78.19173985416708,0.71881103515625,0.6239013671875,0.09173583984375,0.2926025390625,2.73828125,-2.59765625,-0.9140625,15.081512451171875,3.0,2020-03-03 17:48:15.170000-06:00,2020-03-03 17:00
1583279295220.0,0.0,0.0,83.60110884210883,0.6842041015625,0.65789794921875,0.10699462890625,0.29595947265625,0.94921875,-0.91796875,-0.12890625,1.7602996826171875,3.0,2020-03-03 17:48:15.220000-06:00,2020-03-03 17:00
1583279295270.0,0.0,0.0,92.50093040249979,0.62548828125,0.70794677734375,0.14361572265625,0.29486083984375,-0.8828125,4.12109375,3.3359375,28.89125061035156,3.0,2020-03-03 17:48:15.270000-06:00,2020-03-03 17:00
1583279295320.0,0.0,0.0,99.91511665423023,0.5673828125,0.74530029296875,0.17498779296875,0.30328369140625,2.59765625,1.32421875,2.17578125,13.235397338867188,3.0,2020-03-03 17:48:15.320000-06:00,2020-03-03 17:00
1583279295370.0,0.0,0.0,107.99625820252321,0.4864501953125,0.77874755859375,0.2191162109375,0.3299560546875,-0.7421875,2.74609375,3.0703125,17.518692016601562,3.0,2020-03-03 17:48:15.370000-06:00,2020-03-03 17:00
1583279295420.0,0.0,0.0,113.99425058409494,0.4178466796875,0.79925537109375,0.2540283203125,0.34942626953125,1.05078125,0.92578125,3.24609375,12.498336791992188,3.0,2020-03-03 17:48:15.420000-06:00,2020-03-03 17:00
1583279295470.0,0.0,0.0,120.15407427406991,0.38702392578125,0.82965087890625,0.250732421875,0.31475830078125,0.34375,1.02734375,3.39453125,12.696441650390625,3.0,2020-03-03 17:48:15.470000-06:00,2020-03-03 17:00
1583279295520.0,0.0,0.0,122.75593854609087,0.3897705078125,0.8424072265625,0.2467041015625,0.2784423828125,0.64453125,-0.77734375,1.21875,2.505035400390625,3.0,2020-03-03 17:48:15.520000-06:00,2020-03-03 17:00
1583279295570.0,0.0,0.0,124.14763407569107,0.37237548828125,0.84130859375,0.2698974609375,0.28399658203125,0.9375,-0.1640625,0.1640625,0.9327392578125,3.0,2020-03-03 17:48:15.570000-06:00,2020-03-03 17:00
1583279295620.0,0.0,0.0,124.25154407539513,0.361328125,0.83514404296875,0.28973388671875,0.29669189453125,0.44140625,1.171875,-0.89453125,2.368316650390625,3.0,2020-03-03 17:48:15.620000-06:00,2020-03-03 17:00
1583279295670.0,0.0,0.0,124.28159176393116,0.3466796875,0.82733154296875,0.31170654296875,0.3133544921875,0.8671875,1.69140625,0.4453125,3.8111724853515625,3.0,2020-03-03 17:48:15.670000-06:00,2020-03-03 17:00
1583279295720.0,0.0,0.0,124.25031879985843,0.3365478515625,0.8218994140625,0.32537841796875,0.32452392578125,0.6484375,1.37890625,0.359375,2.4510040283203125,3.0,2020-03-03 17:48:15.720000-06:00,2020-03-03 17:00
1583279295770.0,0.0,0.0,123.58470683854247,0.3258056640625,0.81280517578125,0.3404541015625,0.3424072265625,0.46875,0.734375,-0.26171875,0.8275299072265625,3.0,2020-03-03 17:48:15.770000-06:00,2020-03-03 17:00
1583279295820.0,0.0,0.0,121.38968909891592,0.30694580078125,0.79608154296875,0.35595703125,0.38128662109375,0.796875,0.87890625,-0.28515625,1.488800048828125,3.0,2020-03-03 17:48:15.820000-06:00,2020-03-03 17:00
1583279295870.0,0.0,0.0,118.95250910536735,0.28118896484375,0.77899169921875,0.36773681640625,0.4229736328125,1.11328125,0.91015625,1.37109375,3.947677612304688,3.0,2020-03-03 17:48:15.870000-06:00,2020-03-03 17:00
1583279295920.0,0.0,0.0,123.30130101124169,0.2318115234375,0.7940673828125,0.37945556640625,0.4144287109375,1.66796875,0.17578125,-1.46875,4.970245361328125,3.0,2020-03-03 17:48:15.920000-06:00,2020-03-03 17:00
1583279295970.0,0.0,0.0,121.03243324690209,0.21484375,0.7840576171875,0.378173828125,0.44281005859375,-1.38671875,-0.21875,-2.43359375,7.893218994140625,3.0,2020-03-03 17:48:15.970000-06:00,2020-03-03 17:00
1583279296020.0,0.0,0.0,120.27031835881222,0.21759033203125,0.78369140625,0.37127685546875,0.4478759765625,0.6953125,1.35546875,-3.01953125,11.438323974609375,3.0,2020-03-03 17:48:16.020000-06:00,2020-03-03 17:00
1583279296070.0,0.0,0.0,120.68084206964629,0.21929931640625,0.7879638671875,0.36639404296875,0.443603515625,-1.7734375,0.37890625,-1.97265625,7.180023193359375,3.0,2020-03-03 17:48:16.070000-06:00,2020-03-03 17:00
1583279296120.0,0.0,0.0,121.15414144622942,0.23162841796875,0.79254150390625,0.361328125,0.4332275390625,0.6875,1.4921875,-1.06640625,3.836502075195313,3.0,2020-03-03 17:48:16.120000-06:00,2020-03-03 17:00
1583279296170.0,0.0,0.0,120.73632725499785,0.261962890625,0.79315185546875,0.3555908203125,0.4193115234375,0.78125,1.59765625,-1.41796875,5.173492431640625,3.0,2020-03-03 17:48:16.170000-06:00,2020-03-03 17:00
1583279296220.0,0.0,0.0,124.03627216371099,0.2723388671875,0.80877685546875,0.3546142578125,0.382080078125,0.8515625,0.33203125,-0.4765625,1.0625152587890625,3.0,2020-03-03 17:48:16.220000-06:00,2020-03-03 17:00
1583279296270.0,0.0,0.0,127.07990222443695,0.30706787109375,0.82940673828125,0.33697509765625,0.3228759765625,-0.01171875,1.12890625,0.05859375,1.2779998779296875,3.0,2020-03-03 17:48:16.270000-06:00,2020-03-03 17:00
1583279296320.0,0.0,0.0,128.72778106895268,0.32147216796875,0.84100341796875,0.32489013671875,0.28961181640625,0.09765625,0.3125,0.65625,0.5378570556640625,3.0,2020-03-03 17:48:16.320000-06:00,2020-03-03 17:00
1583279296370.0,0.0,0.0,124.04270597394407,0.37762451171875,0.83880615234375,0.2762451171875,0.27838134765625,1.83984375,1.68359375,-2.73046875,13.674972534179688,3.0,2020-03-03 17:48:16.370000-06:00,2020-03-03 17:00
1583279296420.0,0.0,0.0,117.8704700038775,0.43499755859375,0.8297119140625,0.21282958984375,0.27752685546875,0.76171875,-0.06640625,0.3203125,0.687225341796875,3.0,2020-03-03 17:48:16.420000-06:00,2020-03-03 17:00
1583279296470.0,0.0,0.0,106.35612080585592,0.48822021484375,0.7825927734375,0.1683349609375,0.34759521484375,0.12890625,1.1875,0.34765625,1.547637939453125,3.0,2020-03-03 17:48:16.470000-06:00,2020-03-03 17:00
1583279296520.0,0.0,0.0,101.90303868683053,0.4937744140625,0.75445556640625,0.1842041015625,0.3912353515625,1.17578125,0.05859375,-2.87890625,9.673995971679688,3.0,2020-03-03 17:48:16.520000-06:00,2020-03-03 17:00
1583279296570.0,0.0,0.0,101.91675593530985,0.5078125,0.7532958984375,0.189208984375,0.3726806640625,1.26171875,-3.2578125,2.5859375,18.892349243164066,3.0,2020-03-03 17:48:16.570000-06:00,2020-03-03 17:00
1583279296620.0,0.0,0.0,108.33915967794468,0.50616455078125,0.789306640625,0.18524169921875,0.2940673828125,1.12109375,4.13671875,6.9453125,66.60665893554689,3.0,2020-03-03 17:48:16.620000-06:00,2020-03-03 17:00
1583279296670.0,0.0,0.0,119.45801948942764,0.48297119140625,0.850341796875,0.15106201171875,0.1444091796875,0.81640625,0.94921875,3.8671875,16.522674560546875,3.0,2020-03-03 17:48:16.670000-06:00,2020-03-03 17:00
1583279296720.0,0.0,0.0,127.00272552265972,0.44573974609375,0.88873291015625,0.105224609375,-0.01953125,-1.73828125,-2.21484375,0.1171875,7.940887451171875,3.0,2020-03-03 17:48:16.720000-06:00,2020-03-03 17:00
1583279296770.0,0.0,0.0,122.15219999321613,0.458984375,0.87481689453125,0.02789306640625,-0.1524658203125,0.953125,0.8046875,-8.51171875,74.00532531738281,3.0,2020-03-03 17:48:16.770000-06:00,2020-03-03 17:00
1583279296820.0,0.0,0.0,117.6279501722406,0.47674560546875,0.85546875,-0.0072021484375,-0.2021484375,1.109375,-0.515625,3.72265625,15.354751586914062,3.0,2020-03-03 17:48:16.820000-06:00,2020-03-03 17:00
1583279296870.0,0.0,0.0,116.84610364095964,0.468994140625,0.8519287109375,0.00396728515625,-0.23291015625,2.42578125,1.1484375,1.046875,8.299270629882812,3.0,2020-03-03 17:48:16.870000-06:00,2020-03-03 17:00
1583279296920.0,0.0,0.0,118.23629962803874,0.46405029296875,0.85791015625,0.023681640625,-0.2193603515625,6.58203125,3.3125,3.08203125,63.79470825195313,3.0,2020-03-03 17:48:16.920000-06:00,2020-03-03 17:00
1583279296970.0,0.0,0.0,118.80662847889693,0.48193359375,0.859130859375,0.0533447265625,-0.163818359375,-0.19921875,0.640625,1.953125,4.2647857666015625,3.0,2020-03-03 17:48:16.970000-06:00,2020-03-03 17:00
1583279297020.0,0.0,0.0,119.95422926731251,0.48187255859375,0.861328125,0.08795166015625,-0.13458251953125,1.453125,1.5625,3.28515625,15.345230102539062,3.0,2020-03-03 17:48:17.020000-06:00,2020-03-03 17:00
1583279297070.0,0.0,0.0,120.99831483931328,0.48089599609375,0.86090087890625,0.12786865234375,-0.10595703125,3.234375,1.1875,1.86328125,15.343154907226562,3.0,2020-03-03 17:48:17.070000-06:00,2020-03-03 17:00
1583279297120.0,0.0,0.0,119.71740106278062,0.49658203125,0.8509521484375,0.154052734375,-0.07440185546875,1.890625,0.30859375,2.1484375,8.285476684570312,3.0,2020-03-03 17:48:17.120000-06:00,2020-03-03 17:00
1583279297170.0,0.0,0.0,119.48208263246669,0.50262451171875,0.8428955078125,0.188720703125,-0.0361328125,1.43359375,-1.52734375,2.19140625,9.190231323242188,3.0,2020-03-03 17:48:17.170000-06:00,2020-03-03 17:00
1583279297220.0,0.0,0.0,122.87143316110071,0.476318359375,0.85272216796875,0.21038818359375,-0.0419921875,2.64453125,1.21875,2.04296875,12.652618408203125,3.0,2020-03-03 17:48:17.220000-06:00,2020-03-03 17:00
1583279297270.0,0.0,0.0,124.76842689392213,0.46075439453125,0.85467529296875,0.2337646484375,-0.05059814453125,0.98046875,0.65234375,1.6875,4.234527587890625,3.0,2020-03-03 17:48:17.270000-06:00,2020-03-03 17:00
1583279297320.0,0.0,0.0,126.04327396140428,0.44854736328125,0.85406494140625,0.2545166015625,-0.06793212890625,2.80078125,0.54296875,1.5546875,10.556243896484377,3.0,2020-03-03 17:48:17.320000-06:00,2020-03-03 17:00
1583279297370.0,0.0,0.0,125.39203728247251,0.45196533203125,0.8438720703125,0.2783203125,-0.078369140625,3.09375,-0.2734375,1.9453125,13.4302978515625,3.0,2020-03-03 17:48:17.370000-06:00,2020-03-03 17:00
1583279297420.0,0.0,0.0,126.5680904325671,0.43975830078125,0.8463134765625,0.28570556640625,-0.09332275390625,1.3671875,-1.43359375,0.48046875,4.155242919921875,3.0,2020-03-03 17:48:17.420000-06:00,2020-03-03 17:00
1583279297470.0,0.0,0.0,126.44937418380121,0.44024658203125,0.84613037109375,0.28485107421875,-0.09564208984375,0.18359375,-0.15625,1.47265625,2.226837158203125,3.0,2020-03-03 17:48:17.470000-06:00,2020-03-03 17:00
1583279297520.0,0.0,0.0,126.28417265081382,0.44049072265625,0.84564208984375,0.28424072265625,-0.10040283203125,-0.53515625,-0.703125,1.28125,2.4223785400390625,3.0,2020-03-03 17:48:17.520000-06:00,2020-03-03 17:00
1583279297570.0,0.0,0.0,126.67180868603847,0.43682861328125,0.8489990234375,0.2789306640625,-0.10272216796875,0.78515625,1.6484375,2.15234375,7.966400146484375,3.0,2020-03-03 17:48:17.570000-06:00,2020-03-03 17:00
1583279297620.0,0.0,0.0,127.1696245678473,0.4322509765625,0.85211181640625,0.27569580078125,-0.10528564453125,0.0859375,-0.25,1.5703125,2.5357666015625,3.0,2020-03-03 17:48:17.620000-06:00,2020-03-03 17:00
1583279297670.0,0.0,0.0,127.66562499184464,0.43060302734375,0.85888671875,0.26043701171875,-0.0950927734375,1.171875,-0.39453125,1.5703125,3.994827270507813,3.0,2020-03-03 17:48:17.670000-06:00,2020-03-03 17:00
1583279297720.0,0.0,0.0,128.3196766027224,0.4259033203125,0.8621826171875,0.2581787109375,-0.09259033203125,1.03515625,-0.81640625,2.22265625,6.6782684326171875,3.0,2020-03-03 17:48:17.720000-06:00,2020-03-03 17:00
1583279297770.0,0.0,0.0,128.8188639625658,0.422119140625,0.86376953125,0.259521484375,-0.0916748046875,-0.015625,0.9375,1.98046875,4.8014068603515625,3.0,2020-03-03 17:48:17.770000-06:00,2020-03-03 17:00
1583279297820.0,0.0,0.0,128.71565829879412,0.4224853515625,0.8607177734375,0.26812744140625,-0.09368896484375,1.25,-0.546875,1.09765625,3.0664215087890625,3.0,2020-03-03 17:48:17.820000-06:00,2020-03-03 17:00
1583279297870.0,0.0,0.0,129.1011727902652,0.420166015625,0.861328125,0.27099609375,-0.0899658203125,1.39453125,0.3125,1.296875,3.7242584228515625,3.0,2020-03-03 17:48:17.870000-06:00,2020-03-03 17:00
1583279297920.0,0.0,0.0,129.29179793673595,0.42022705078125,0.86102294921875,0.27435302734375,-0.082275390625,0.61328125,0.91796875,0.953125,2.127227783203125,3.0,2020-03-03 17:48:17.920000-06:00,2020-03-03 17:00
1583279297970.0,0.0,0.0,129.4054249381565,0.42169189453125,0.86328125,0.2685546875,-0.06890869140625,1.34765625,-0.4765625,0.88671875,2.829559326171875,3.0,2020-03-03 17:48:17.970000-06:00,2020-03-03 17:00
1583279298020.0,0.0,0.0,128.69708062517657,0.43023681640625,0.863525390625,0.2586669921875,-0.0477294921875,0.34765625,-0.28125,0.2578125,0.2664337158203125,3.0,2020-03-03 17:48:18.020000-06:00,2020-03-03 17:00
1583279298070.0,0.0,0.0,129.01271604192115,0.4288330078125,0.86517333984375,0.25732421875,-0.0367431640625,0.8984375,-0.67578125,0.859375,2.0023956298828125,3.0,2020-03-03 17:48:18.070000-06:00,2020-03-03 17:00
1583279298120.0,0.0,0.0,129.67793501520444,0.4249267578125,0.869873046875,0.25006103515625,-0.01324462890625,0.53125,0.296875,1.765625,3.48779296875,3.0,2020-03-03 17:48:18.120000-06:00,2020-03-03 17:00
1583279298170.0,0.0,0.0,127.39007655404421,0.44287109375,0.86700439453125,0.22784423828125,0.015380859375,0.140625,-0.73828125,0.40234375,0.726715087890625,3.0,2020-03-03 17:48:18.170000-06:00,2020-03-03 17:00
1583279298220.0,0.0,0.0,122.19795154539163,0.480224609375,0.85369873046875,0.1939697265625,0.054443359375,0.18359375,-0.2578125,0.5546875,0.4078521728515625,3.0,2020-03-03 17:48:18.220000-06:00,2020-03-03 17:00
1583279298270.0,0.0,0.0,117.9099992022271,0.508056640625,0.83966064453125,0.17034912109375,0.08856201171875,0.2421875,-0.14453125,-0.03515625,0.080780029296875,3.0,2020-03-03 17:48:18.270000-06:00,2020-03-03 17:00
1583279298320.0,0.0,0.0,114.08045271210108,0.53173828125,0.8232421875,0.16204833984375,0.114990234375,-0.11328125,0.6484375,0.53515625,0.719696044921875,3.0,2020-03-03 17:48:18.320000-06:00,2020-03-03 17:00
1583279298370.0,0.0,0.0,111.07384529509443,0.55328369140625,0.80523681640625,0.17706298828125,0.11859130859375,0.4921875,0.12109375,0.38671875,0.406463623046875,3.0,2020-03-03 17:48:18.370000-06:00,2020-03-03 17:00
1583279298420.0,0.0,0.0,108.94334677089807,0.5672607421875,0.79193115234375,0.18756103515625,0.12615966796875,0.41015625,0.921875,0.078125,1.0241851806640625,3.0,2020-03-03 17:48:18.420000-06:00,2020-03-03 17:00
1583279298470.0,0.0,0.0,106.59116439781928,0.5816650390625,0.77703857421875,0.1973876953125,0.13739013671875,0.66015625,0.984375,1.11328125,2.644195556640625,3.0,2020-03-03 17:48:18.470000-06:00,2020-03-03 17:00
1583279298520.0,0.0,0.0,103.8414955638314,0.59722900390625,0.7589111328125,0.20892333984375,0.15386962890625,0.20703125,-0.12890625,1.16796875,1.4236297607421875,3.0,2020-03-03 17:48:18.520000-06:00,2020-03-03 17:00
1583279298570.0,0.0,0.0,100.74706756410777,0.61297607421875,0.73980712890625,0.21435546875,0.17620849609375,0.20703125,-0.46875,1.03515625,1.334136962890625,3.0,2020-03-03 17:48:18.570000-06:00,2020-03-03 17:00
1583279298620.0,0.0,0.0,99.09497294398464,0.615478515625,0.73077392578125,0.21221923828125,0.20538330078125,0.03125,-0.4921875,-0.4609375,0.4556884765625,3.0,2020-03-03 17:48:18.620000-06:00,2020-03-03 17:00
1583279298670.0,0.0,0.0,98.62304356766118,0.60382080078125,0.7283935546875,0.21075439453125,0.245849609375,0.046875,-1.14453125,0.421875,1.4901275634765625,3.0,2020-03-03 17:48:18.670000-06:00,2020-03-03 17:00
1583279298720.0,0.0,0.0,103.18857370575144,0.53912353515625,0.7396240234375,0.2589111328125,0.30865478515625,-0.140625,-0.24609375,0.078125,0.0864410400390625,3.0,2020-03-03 17:48:18.720000-06:00,2020-03-03 17:00
1583279298770.0,0.0,0.0,106.21139521741699,0.54107666015625,0.7259521484375,0.3355712890625,0.2601318359375,0.421875,3.12109375,-1.9765625,13.826004028320312,3.0,2020-03-03 17:48:18.770000-06:00,2020-03-03 17:00
1583279298830.0,0.0,0.0,110.46716432050027,0.51141357421875,0.73052978515625,0.375732421875,0.25225830078125,1.37890625,4.90625,-7.64453125,84.41152954101562,3.0,2020-03-03 17:48:18.830000-06:00,2020-03-03 17:00
1583279298870.0,0.0,0.0,111.22780761871333,0.4920654296875,0.73638916015625,0.37249755859375,0.27716064453125,-0.71484375,-0.5390625,-1.04296875,1.889373779296875,3.0,2020-03-03 17:48:18.870000-06:00,2020-03-03 17:00
1583279298920.0,0.0,0.0,106.14901815081416,0.5107421875,0.72100830078125,0.34527587890625,0.31634521484375,0.1328125,0.6484375,-1.20703125,1.8950347900390625,3.0,2020-03-03 17:48:18.920000-06:00,2020-03-03 17:00
1583279298970.0,0.0,0.0,96.33376173638635,0.58447265625,0.6810302734375,0.30224609375,0.3212890625,0.0859375,-0.171875,-2.9921875,8.9901123046875,3.0,2020-03-03 17:48:18.970000-06:00,2020-03-03 17:00
1583279299020.0,0.0,0.0,86.61131643798677,0.66363525390625,0.64599609375,0.23052978515625,0.298583984375,0.72265625,1.546875,-1.52734375,5.247833251953125,3.0,2020-03-03 17:48:19.020000-06:00,2020-03-03 17:00
1583279299070.0,0.0,0.0,85.16963081604153,0.67071533203125,0.65435791015625,0.17236328125,0.3037109375,0.80078125,-0.90625,-4.1640625,18.80195617675781,3.0,2020-03-03 17:48:19.070000-06:00,2020-03-03 17:00
1583279299120.0,0.0,0.0,87.0795641723407,0.6441650390625,0.67822265625,0.12042236328125,0.3323974609375,0.22265625,0.7890625,-0.328125,0.7798614501953125,3.0,2020-03-03 17:48:19.120000-06:00,2020-03-03 17:00
1583279299170.0,0.0,0.0,89.85431639033848,0.6158447265625,0.69940185546875,0.09783935546875,0.34930419921875,-0.05859375,0.6484375,-0.328125,0.5315704345703125,3.0,2020-03-03 17:48:19.170000-06:00,2020-03-03 17:00
1583279299220.0,0.0,0.0,90.52441665333531,0.6046142578125,0.70330810546875,0.099609375,0.3603515625,1.43359375,2.34765625,0.9296875,8.430999755859375,3.0,2020-03-03 17:48:19.220000-06:00,2020-03-03 17:00
1583279299270.0,0.0,0.0,92.13873944577804,0.58416748046875,0.71563720703125,0.0806884765625,0.374267578125,1.26953125,-0.2890625,-1.75390625,4.771453857421875,3.0,2020-03-03 17:48:19.270000-06:00,2020-03-03 17:00
1583279299320.0,0.0,0.0,92.14382551173277,0.5889892578125,0.71661376953125,0.0721435546875,0.36663818359375,0.46484375,0.453125,-2.421875,6.286880493164063,3.0,2020-03-03 17:48:19.320000-06:00,2020-03-03 17:00
1583279299370.0,0.0,0.0,90.63505218852552,0.610595703125,0.70947265625,0.0472412109375,0.34881591796875,1.4296875,1.1953125,-1.55078125,5.877700805664063,3.0,2020-03-03 17:48:19.370000-06:00,2020-03-03 17:00
1583279299420.0,0.0,0.0,88.95450106079024,0.63934326171875,0.70025634765625,0.023193359375,0.31683349609375,1.859375,0.3984375,-2.07421875,7.9184112548828125,3.0,2020-03-03 17:48:19.420000-06:00,2020-03-03 17:00
1583279299470.0,0.0,0.0,87.02689481345129,0.67230224609375,0.68841552734375,-0.011962890625,0.27191162109375,2.22265625,0.2109375,-0.484375,5.2193145751953125,3.0,2020-03-03 17:48:19.470000-06:00,2020-03-03 17:00
1583279299520.0,0.0,0.0,85.27444573332205,0.69805908203125,0.676513671875,-0.03375244140625,0.232177734375,1.7734375,-1.0078125,-0.890625,4.9539794921875,3.0,2020-03-03 17:48:19.520000-06:00,2020-03-03 17:00
1583279299570.0,0.0,0.0,82.57835504827375,0.7252197265625,0.65692138671875,-0.06207275390625,0.196533203125,0.44140625,0.14453125,1.640625,2.907379150390625,3.0,2020-03-03 17:48:19.570000-06:00,2020-03-03 17:00
1583279299620.0,0.0,0.0,80.51281896101523,0.7437744140625,0.63897705078125,-0.09637451171875,0.1708984375,0.51953125,0.62890625,2.0625,4.919342041015625,3.0,2020-03-03 17:48:19.620000-06:00,2020-03-03 17:00
1583279299680.0,0.0,0.0,80.00137903603472,0.7513427734375,0.62939453125,-0.130615234375,0.14935302734375,-0.16015625,1.9765625,2.4609375,9.988662719726562,3.0,2020-03-03 17:48:19.680000-06:00,2020-03-03 17:00
1583279299720.0,0.0,0.0,79.86130070640091,0.75372314453125,0.624267578125,-0.14923095703125,0.14111328125,0.3515625,0.609375,2.0703125,4.7811279296875,3.0,2020-03-03 17:48:19.720000-06:00,2020-03-03 17:00
1583279299770.0,0.0,0.0,80.67829508048774,0.74896240234375,0.62646484375,-0.16302490234375,0.14166259765625,-0.01171875,0.89453125,1.73828125,3.821945190429688,3.0,2020-03-03 17:48:19.770000-06:00,2020-03-03 17:00
1583279299820.0,0.0,0.0,80.36326536640081,0.7525634765625,0.62139892578125,-0.17376708984375,0.1318359375,0.98046875,1.58203125,3.20703125,13.749191284179688,3.0,2020-03-03 17:48:19.820000-06:00,2020-03-03 17:00
1583279299870.0,0.0,0.0,80.83509232013455,0.7515869140625,0.629150390625,-0.1566162109375,0.1214599609375,1.046875,1.859375,2.375,10.19384765625,3.0,2020-03-03 17:48:19.870000-06:00,2020-03-03 17:00
1583279299920.0,0.0,0.0,80.4475115265099,0.75537109375,0.62176513671875,-0.17449951171875,0.11138916015625,-0.21875,3.1484375,4.30078125,28.45722961425781,3.0,2020-03-03 17:48:19.920000-06:00,2020-03-03 17:00
1583279299970.0,0.0,0.0,78.42676554952303,0.7659912109375,0.6092529296875,-0.16876220703125,0.11639404296875,-2.08203125,-1.0625,-1.30078125,7.155792236328125,3.0,2020-03-03 17:48:19.970000-06:00,2020-03-03 17:00
1583279300020.0,0.0,0.0,77.40181364693858,0.77001953125,0.6025390625,-0.16693115234375,0.12689208984375,-0.95703125,1.48046875,-0.20703125,3.1505584716796875,3.0,2020-03-03 17:48:20.020000-06:00,2020-03-03 17:00
1583279300070.0,0.0,0.0,77.13092402521052,0.77044677734375,0.5963134765625,-0.18182373046875,0.13336181640625,0.796875,2.07421875,1.97265625,8.828765869140625,3.0,2020-03-03 17:48:20.070000-06:00,2020-03-03 17:00
1583279300120.0,0.0,0.0,76.67298347715423,0.7725830078125,0.59259033203125,-0.1832275390625,0.135498046875,1.390625,-0.25390625,1.3828125,3.910476684570313,3.0,2020-03-03 17:48:20.120000-06:00,2020-03-03 17:00
1583279300170.0,0.0,0.0,75.71765856829205,0.77789306640625,0.5865478515625,-0.1806640625,0.1351318359375,1.41015625,-0.125,0.78515625,2.620635986328125,3.0,2020-03-03 17:48:20.170000-06:00,2020-03-03 17:00
1583279300220.0,0.0,0.0,74.78959510260057,0.782958984375,0.5770263671875,-0.1893310546875,0.13470458984375,0.75390625,0.34375,1.6015625,3.2515411376953125,3.0,2020-03-03 17:48:20.220000-06:00,2020-03-03 17:00
1583279300270.0,0.0,0.0,74.3571872216101,0.78558349609375,0.57171630859375,-0.19573974609375,0.1329345703125,0.734375,0.66796875,1.60546875,3.563018798828125,3.0,2020-03-03 17:48:20.270000-06:00,2020-03-03 17:00
1583279300320.0,0.0,0.0,74.0530578023659,0.78704833984375,0.5675048828125,-0.201416015625,0.1339111328125,0.265625,0.8671875,1.203125,2.27008056640625,3.0,2020-03-03 17:48:20.320000-06:00,2020-03-03 17:00
1583279300370.0,0.0,0.0,73.64516893069738,0.78857421875,0.5618896484375,-0.20849609375,0.1375732421875,0.26953125,0.30078125,1.39453125,2.1078338623046875,3.0,2020-03-03 17:48:20.370000-06:00,2020-03-03 17:00
1583279300420.0,0.0,0.0,73.49276091739152,0.7894287109375,0.56121826171875,-0.20721435546875,0.13726806640625,0.30859375,0.734375,0.92578125,1.491607666015625,3.0,2020-03-03 17:48:20.420000-06:00,2020-03-03 17:00
1583279300470.0,0.0,0.0,73.4551228569334,0.79058837890625,0.56353759765625,-0.20013427734375,0.13177490234375,1.6953125,0.25,0.80078125,3.5778350830078125,3.0,2020-03-03 17:48:20.470000-06:00,2020-03-03 17:00
1583279300520.0,0.0,0.0,73.64267353412431,0.79071044921875,0.5679931640625,-0.1912841796875,0.12493896484375,1.11328125,0.453125,1.26953125,3.056427001953125,3.0,2020-03-03 17:48:20.520000-06:00,2020-03-03 17:00
1583279300570.0,0.0,0.0,73.50903456532173,0.7916259765625,0.57073974609375,-0.17974853515625,0.12347412109375,0.4296875,0.0390625,1.859375,3.6434326171875,3.0,2020-03-03 17:48:20.570000-06:00,2020-03-03 17:00
1583279300620.0,0.0,0.0,73.56612443631356,0.79168701171875,0.57568359375,-0.16461181640625,0.12103271484375,0.03515625,0.54296875,1.15234375,1.6239471435546875,3.0,2020-03-03 17:48:20.620000-06:00,2020-03-03 17:00
1583279300670.0,0.0,0.0,73.69359529245676,0.79071044921875,0.58447265625,-0.13409423828125,0.123046875,0.51171875,0.125,1.2578125,1.8595733642578125,3.0,2020-03-03 17:48:20.670000-06:00,2020-03-03 17:00
1583279300720.0,0.0,0.0,73.9608423548795,0.785888671875,0.59320068359375,-0.0999755859375,0.14337158203125,-1.1875,1.20703125,0.171875,2.8966217041015625,3.0,2020-03-03 17:48:20.720000-06:00,2020-03-03 17:00
1583279300780.0,0.0,0.0,74.09319178183155,0.7801513671875,0.59814453125,-0.0721435546875,0.1685791015625,-0.921875,1.51171875,1.15234375,4.463043212890625,3.0,2020-03-03 17:48:20.780000-06:00,2020-03-03 17:00
1583279300820.0,0.0,0.0,74.9790269638777,0.7701416015625,0.60772705078125,-0.032958984375,0.19097900390625,-0.3125,1.08984375,0.96875,2.2238922119140625,3.0,2020-03-03 17:48:20.820000-06:00,2020-03-03 17:00
1583279300880.0,0.0,0.0,76.04337251124281,0.75634765625,0.6158447265625,0.0125732421875,0.2203369140625,-0.2734375,3.19921875,0.3359375,10.422622680664062,3.0,2020-03-03 17:48:20.880000-06:00,2020-03-03 17:00
1583279300920.0,0.0,0.0,78.5852613546132,0.736083984375,0.62908935546875,0.07269287109375,0.239013671875,-0.1953125,3.1875,0.2265625,10.2496337890625,3.0,2020-03-03 17:48:20.920000-06:00,2020-03-03 17:00
1583279300970.0,0.0,0.0,82.37910153536338,0.70904541015625,0.64794921875,0.11773681640625,0.25213623046875,-0.30078125,3.2734375,0.92578125,11.662933349609375,3.0,2020-03-03 17:48:20.970000-06:00,2020-03-03 17:00
1583279301020.0,0.0,0.0,84.85527748250735,0.68157958984375,0.65679931640625,0.154052734375,0.28326416015625,-0.5234375,1.53125,-1.30859375,4.3311309814453125,3.0,2020-03-03 17:48:21.020000-06:00,2020-03-03 17:00
1583279301070.0,0.0,0.0,86.98107140611855,0.65606689453125,0.6614990234375,0.1900634765625,0.30975341796875,0.6171875,-0.77734375,-1.8359375,4.3558502197265625,3.0,2020-03-03 17:48:21.070000-06:00,2020-03-03 17:00
1583279301120.0,0.0,0.0,89.34034539370572,0.6300048828125,0.6624755859375,0.2353515625,0.3299560546875,1.09375,-1.95703125,-0.74609375,5.582916259765625,3.0,2020-03-03 17:48:21.120000-06:00,2020-03-03 17:00
1583279301170.0,0.0,0.0,91.815853624178,0.6038818359375,0.664306640625,0.2730712890625,0.345703125,1.84765625,-2.2734375,0.234375,8.637283325195312,3.0,2020-03-03 17:48:21.170000-06:00,2020-03-03 17:00
1583279301220.0,0.0,0.0,92.3858617292544,0.5926513671875,0.6561279296875,0.30047607421875,0.357666015625,1.20703125,-3.1796875,-0.5546875,11.875015258789062,3.0,2020-03-03 17:48:21.220000-06:00,2020-03-03 17:00
1583279301280.0,0.0,0.0,93.71523212647064,0.58135986328125,0.6488037109375,0.3338623046875,0.36004638671875,2.66015625,-2.359375,-0.7265625,13.170974731445312,3.0,2020-03-03 17:48:21.280000-06:00,2020-03-03 17:00
1583279301320.0,0.0,0.0,93.40937680495163,0.58197021484375,0.6343994140625,0.35675048828125,0.36273193359375,1.69921875,-2.796875,-1.21484375,12.185699462890625,3.0,2020-03-03 17:48:21.320000-06:00,2020-03-03 17:00
1583279301370.0,0.0,0.0,91.44760833708656,0.59027099609375,0.61602783203125,0.3648681640625,0.37274169921875,1.859375,-1.77734375,-1.4609375,8.750564575195312,3.0,2020-03-03 17:48:21.370000-06:00,2020-03-03 17:00
1583279301420.0,0.0,0.0,88.86857414784195,0.60198974609375,0.58990478515625,0.37701416015625,0.384033203125,0.8359375,-1.77734375,-1.8828125,7.402725219726562,3.0,2020-03-03 17:48:21.420000-06:00,2020-03-03 17:00
1583279301470.0,0.0,0.0,86.16853564341692,0.614990234375,0.56512451171875,0.38372802734375,0.39398193359375,1.5390625,-1.2265625,-1.30859375,5.5855865478515625,3.0,2020-03-03 17:48:21.470000-06:00,2020-03-03 17:00
1583279301520.0,0.0,0.0,82.78975141836172,0.62823486328125,0.53912353515625,0.38287353515625,0.40997314453125,0.76953125,-1.1796875,-0.6640625,2.4248199462890625,3.0,2020-03-03 17:48:21.520000-06:00,2020-03-03 17:00
1583279301570.0,0.0,0.0,80.24262420344743,0.636962890625,0.5098876953125,0.39404296875,0.423095703125,1.40625,-1.359375,-1.4453125,5.91436767578125,3.0,2020-03-03 17:48:21.570000-06:00,2020-03-03 17:00
1583279301620.0,0.0,0.0,77.28169354922616,0.6461181640625,0.49029541015625,0.38665771484375,0.4388427734375,0.921875,-0.45703125,-0.75390625,1.627105712890625,3.0,2020-03-03 17:48:21.620000-06:00,2020-03-03 17:00
1583279301670.0,0.0,0.0,75.21834646143066,0.6512451171875,0.469482421875,0.389892578125,0.4510498046875,1.12109375,-0.60546875,-0.98046875,2.5847625732421875,3.0,2020-03-03 17:48:21.670000-06:00,2020-03-03 17:00
1583279301720.0,0.0,0.0,74.62713330166143,0.64898681640625,0.452880859375,0.40289306640625,0.459716796875,0.58203125,-0.12890625,-1.07421875,1.5093231201171875,3.0,2020-03-03 17:48:21.720000-06:00,2020-03-03 17:00
1583279301770.0,0.0,0.0,73.17612092664038,0.6502685546875,0.44219970703125,0.399658203125,0.47100830078125,0.8203125,-1.0546875,-0.703125,2.2796630859375,3.0,2020-03-03 17:48:21.770000-06:00,2020-03-03 17:00
1583279301820.0,0.0,0.0,72.21912032047737,0.64385986328125,0.4296875,0.4033203125,0.48797607421875,-0.19140625,-0.2890625,-1.28125,1.7617950439453125,3.0,2020-03-03 17:48:21.820000-06:00,2020-03-03 17:00
1583279301870.0,0.0,0.0,73.01802419352718,0.63482666015625,0.4232177734375,0.41815185546875,0.49298095703125,1.1171875,-1.65625,-0.6328125,4.3917236328125,3.0,2020-03-03 17:48:21.870000-06:00,2020-03-03 17:00
1583279301920.0,0.0,0.0,75.36234712601927,0.62054443359375,0.4144287109375,0.4493408203125,0.4912109375,0.66796875,-0.9921875,-2.0625,5.6845245361328125,3.0,2020-03-03 17:48:21.920000-06:00,2020-03-03 17:00
1583279301970.0,0.0,0.0,78.21810550326244,0.606201171875,0.3992919921875,0.48834228515625,0.484375,1.86328125,-1.52734375,-2.6953125,13.069305419921875,3.0,2020-03-03 17:48:21.970000-06:00,2020-03-03 17:00
1583279302020.0,0.0,0.0,81.38967975741015,0.5928955078125,0.38970947265625,0.52276611328125,0.47259521484375,2.6484375,-0.01953125,-1.390625,8.948440551757812,3.0,2020-03-03 17:48:22.020000-06:00,2020-03-03 17:00
1583279302070.0,0.0,0.0,84.66002075144823,0.57257080078125,0.3804931640625,0.55560302734375,0.4676513671875,1.4453125,0.2734375,-2.0078125,6.19500732421875,3.0,2020-03-03 17:48:22.070000-06:00,2020-03-03 17:00
1583279302120.0,0.0,0.0,87.0546566384017,0.5484619140625,0.37451171875,0.57794189453125,0.47418212890625,1.11328125,1.13671875,-1.55078125,4.936447143554688,3.0,2020-03-03 17:48:22.120000-06:00,2020-03-03 17:00
1583279302160.0,0.0,0.0,90.23595723580587,0.52142333984375,0.36846923828125,0.605224609375,0.4754638671875,0.6875,0.80859375,-2.65625,8.182144165039062,3.0,2020-03-03 17:48:22.160000-06:00,2020-03-03 17:00
1583279302220.0,0.0,0.0,95.10099193273584,0.49127197265625,0.37060546875,0.6380615234375,0.46282958984375,1.484375,0.6640625,-1.5390625,5.0130615234375,3.0,2020-03-03 17:48:22.220000-06:00,2020-03-03 17:00
1583279302260.0,0.0,0.0,98.56714395535008,0.46051025390625,0.37127685546875,0.6607666015625,0.46197509765625,1.828125,0.2890625,-0.7265625,3.9534912109375,3.0,2020-03-03 17:48:22.260000-06:00,2020-03-03 17:00
1583279302320.0,0.0,0.0,99.29900780745324,0.42437744140625,0.36737060546875,0.667724609375,0.489013671875,2.23046875,-0.73828125,-2.2109375,10.408294677734377,3.0,2020-03-03 17:48:22.320000-06:00,2020-03-03 17:00
1583279302360.0,0.0,0.0,99.08432825093227,0.3839111328125,0.37274169921875,0.663330078125,0.52313232421875,1.51171875,-0.37890625,-1.6640625,5.197967529296875,3.0,2020-03-03 17:48:22.360000-06:00,2020-03-03 17:00
1583279302420.0,0.0,0.0,98.57503320806278,0.34307861328125,0.41864013671875,0.63189697265625,0.55474853515625,2.28125,-1.27734375,-2.37109375,12.457794189453125,3.0,2020-03-03 17:48:22.420000-06:00,2020-03-03 17:00
1583279302470.0,0.0,0.0,98.10533503457584,0.27484130859375,0.46124267578125,0.59808349609375,0.59490966796875,1.30859375,-0.91796875,-1.16015625,3.901046752929688,3.0,2020-03-03 17:48:22.470000-06:00,2020-03-03 17:00
1583279302510.0,0.0,0.0,94.98320135638279,0.26995849609375,0.4884033203125,0.5521240234375,0.619384765625,2.3359375,-2.44921875,-3.6171875,24.539321899414066,3.0,2020-03-03 17:48:22.510000-06:00,2020-03-03 17:00
1583279302560.0,0.0,0.0,93.38497961259482,0.286865234375,0.5035400390625,0.52532958984375,0.623046875,4.25390625,-2.1328125,-3.15234375,32.58187866210937,3.0,2020-03-03 17:48:22.560000-06:00,2020-03-03 17:00
1583279302610.0,0.0,0.0,94.00725582089262,0.3123779296875,0.52227783203125,0.51202392578125,0.606201171875,3.73046875,1.453125,-2.1875,20.81312561035156,3.0,2020-03-03 17:48:22.610000-06:00,2020-03-03 17:00
1583279302660.0,0.0,0.0,94.30993142613431,0.33795166015625,0.539306640625,0.4967041015625,0.590087890625,2.40625,1.140625,-1.703125,9.99169921875,3.0,2020-03-03 17:48:22.660000-06:00,2020-03-03 17:00
1583279302710.0,0.0,0.0,95.11121824802773,0.3599853515625,0.550048828125,0.491943359375,0.57086181640625,0.609375,0.92578125,-0.8046875,1.8759307861328125,3.0,2020-03-03 17:48:22.710000-06:00,2020-03-03 17:00
1583279302760.0,0.0,0.0,93.09531664958423,0.388427734375,0.55157470703125,0.47198486328125,0.56756591796875,2.4921875,-0.9609375,-0.578125,7.4686279296875,3.0,2020-03-03 17:48:22.760000-06:00,2020-03-03 17:00
1583279302810.0,0.0,0.0,90.02702962086927,0.41876220703125,0.54681396484375,0.4486083984375,0.569580078125,1.3515625,-1.421875,-2.8046875,11.7147216796875,3.0,2020-03-03 17:48:22.810000-06:00,2020-03-03 17:00
1583279302860.0,0.0,0.0,87.25619266452391,0.451416015625,0.53668212890625,0.43359375,0.5657958984375,1.05859375,0.30859375,-2.9921875,10.169036865234377,3.0,2020-03-03 17:48:22.860000-06:00,2020-03-03 17:00
1583279302910.0,0.0,0.0,83.2282699520862,0.48193359375,0.525146484375,0.40655517578125,0.57159423828125,2.76171875,0.3671875,-3.13671875,17.600921630859375,3.0,2020-03-03 17:48:22.910000-06:00,2020-03-03 17:00
1583279302960.0,0.0,0.0,78.72222678131924,0.50201416015625,0.5146484375,0.37060546875,0.5880126953125,-0.125,1.5625,-2.68359375,9.658706665039062,3.0,2020-03-03 17:48:22.960000-06:00,2020-03-03 17:00
1583279303010.0,0.0,0.0,79.46995779255627,0.5,0.52142333984375,0.36981201171875,0.58428955078125,-0.33984375,4.75,-1.83203125,26.034332275390625,3.0,2020-03-03 17:48:23.010000-06:00,2020-03-03 17:00
1583279303060.0,0.0,0.0,82.9412305275269,0.4915771484375,0.53814697265625,0.38592529296875,0.56549072265625,-0.30078125,3.2421875,-1.890625,14.176712036132812,3.0,2020-03-03 17:48:23.060000-06:00,2020-03-03 17:00
1583279303110.0,0.0,0.0,84.82645428201431,0.4852294921875,0.546875,0.394775390625,0.55645751953125,-0.55078125,-1.2890625,-1.25,3.5275421142578125,3.0,2020-03-03 17:48:23.110000-06:00,2020-03-03 17:00
1583279303160.0,0.0,0.0,83.77283390330867,0.48138427734375,0.54241943359375,0.38934326171875,0.56793212890625,-1.5,-1.84765625,-0.390625,5.816421508789063,3.0,2020-03-03 17:48:23.160000-06:00,2020-03-03 17:00
1583279303210.0,0.0,0.0,82.51966476789684,0.48052978515625,0.534912109375,0.38568115234375,0.57806396484375,-0.546875,-0.7265625,0.13671875,0.8456573486328125,3.0,2020-03-03 17:48:23.210000-06:00,2020-03-03 17:00
1583279303260.0,0.0,0.0,81.07458991363852,0.47515869140625,0.5263671875,0.38128662109375,0.5931396484375,-0.1640625,0.0625,0.3984375,0.1895751953125,3.0,2020-03-03 17:48:23.260000-06:00,2020-03-03 17:00
1583279303310.0,0.0,0.0,80.91956013366124,0.4656982421875,0.516357421875,0.39300537109375,0.6016845703125,0.015625,1.04296875,0.36328125,1.220001220703125,3.0,2020-03-03 17:48:23.310000-06:00,2020-03-03 17:00
1583279303360.0,0.0,0.0,81.12357599454599,0.45953369140625,0.50927734375,0.40435791015625,0.60498046875,1.86328125,0.015625,-0.1328125,3.4897003173828125,3.0,2020-03-03 17:48:23.360000-06:00,2020-03-03 17:00
1583279303410.0,0.0,0.0,81.2456306366077,0.45672607421875,0.50457763671875,0.41143798828125,0.606201171875,2.30078125,-0.17578125,-0.4375,5.515899658203125,3.0,2020-03-03 17:48:23.410000-06:00,2020-03-03 17:00
1583279303460.0,0.0,0.0,81.9128956600324,0.449462890625,0.50262451171875,0.42071533203125,0.60687255859375,1.2890625,0.4140625,-0.72265625,2.3553619384765625,3.0,2020-03-03 17:48:23.460000-06:00,2020-03-03 17:00
1583279303510.0,0.0,0.0,82.38775962936302,0.44482421875,0.4979248046875,0.43109130859375,0.60693359375,0.83203125,0.02734375,-0.734375,1.232330322265625,3.0,2020-03-03 17:48:23.510000-06:00,2020-03-03 17:00
1583279303560.0,0.0,0.0,82.9799283837536,0.44122314453125,0.49700927734375,0.43804931640625,0.6053466796875,2.01171875,-0.31640625,-0.82421875,4.826461791992188,3.0,2020-03-03 17:48:23.560000-06:00,2020-03-03 17:00
1583279303610.0,0.0,0.0,84.68335553846406,0.4393310546875,0.49786376953125,0.45367431640625,0.59442138671875,0.88671875,0.76171875,-0.59375,1.719024658203125,3.0,2020-03-03 17:48:23.610000-06:00,2020-03-03 17:00
1583279303660.0,0.0,0.0,86.48197688930523,0.4443359375,0.50518798828125,0.46270751953125,0.5772705078125,2.2734375,0.01953125,-0.6796875,5.630874633789063,3.0,2020-03-03 17:48:23.660000-06:00,2020-03-03 17:00
1583279303710.0,0.0,0.0,86.32274075322819,0.44183349609375,0.511474609375,0.4542236328125,0.58038330078125,-0.0859375,-1.875,-1.70703125,6.4369659423828125,3.0,2020-03-03 17:48:23.710000-06:00,2020-03-03 17:00
1583279303760.0,0.0,0.0,85.41768799828172,0.44537353515625,0.50750732421875,0.45001220703125,0.58447265625,-1.26171875,-1.8671875,-0.58203125,5.417083740234375,3.0,2020-03-03 17:48:23.760000-06:00,2020-03-03 17:00
1583279303810.0,0.0,0.0,84.63602606555459,0.453857421875,0.499755859375,0.45111083984375,0.583740234375,0.80859375,-0.3671875,-0.9609375,1.7120513916015625,3.0,2020-03-03 17:48:23.810000-06:00,2020-03-03 17:00
1583279303860.0,0.0,0.0,83.3234727832358,0.4615478515625,0.49114990234375,0.44793701171875,0.58746337890625,0.515625,-0.48046875,-0.98046875,1.458038330078125,3.0,2020-03-03 17:48:23.860000-06:00,2020-03-03 17:00
1583279303910.0,0.0,0.0,82.31864029652623,0.47003173828125,0.4847412109375,0.4451904296875,0.588134765625,0.890625,0.1484375,-0.984375,1.78424072265625,3.0,2020-03-03 17:48:23.910000-06:00,2020-03-03 17:00
1583279303960.0,0.0,0.0,80.97373634824751,0.47833251953125,0.4755859375,0.4420166015625,0.59130859375,0.25,0.125,-0.84375,0.7900390625,3.0,2020-03-03 17:48:23.960000-06:00,2020-03-03 17:00
1583279304010.0,0.0,0.0,79.13793265285103,0.4833984375,0.4674072265625,0.43280029296875,0.6004638671875,0.0,0.03125,-0.84765625,0.7194976806640625,3.0,2020-03-03 17:48:24.010000-06:00,2020-03-03 17:00
1583279304060.0,0.0,0.0,78.12959783045906,0.482421875,0.4630126953125,0.42755126953125,0.6083984375,0.05078125,1.3046875,-1.12109375,2.961639404296875,3.0,2020-03-03 17:48:24.060000-06:00,2020-03-03 17:00
1583279304110.0,0.0,0.0,78.20494098432576,0.4757080078125,0.46002197265625,0.43145751953125,0.61309814453125,-0.53125,1.90234375,-0.82421875,4.580474853515625,3.0,2020-03-03 17:48:24.110000-06:00,2020-03-03 17:00
1583279304160.0,0.0,0.0,78.66147120514123,0.46881103515625,0.4559326171875,0.44024658203125,0.615234375,0.1328125,1.13671875,-0.92578125,2.166839599609375,3.0,2020-03-03 17:48:24.160000-06:00,2020-03-03 17:00
1583279304210.0,0.0,0.0,75.46372061138726,0.4691162109375,0.43536376953125,0.4300537109375,0.63671875,0.2578125,0.23046875,-0.9375,0.9984893798828124,3.0,2020-03-03 17:48:24.210000-06:00,2020-03-03 17:00
1583279304260.0,0.0,0.0,74.6770563234212,0.46099853515625,0.44415283203125,0.41302490234375,0.64776611328125,4.4453125,-7.08984375,-0.76953125,70.61886596679688,3.0,2020-03-03 17:48:24.260000-06:00,2020-03-03 17:00
1583279304310.0,0.0,0.0,74.66522295154249,0.45947265625,0.4495849609375,0.406982421875,0.64892578125,1.93359375,0.734375,-1.015625,5.309585571289063,3.0,2020-03-03 17:48:24.310000-06:00,2020-03-03 17:00
1583279304360.0,0.0,0.0,75.66644526525067,0.45843505859375,0.45758056640625,0.408447265625,0.64312744140625,0.421875,0.85546875,-0.81640625,1.576324462890625,3.0,2020-03-03 17:48:24.360000-06:00,2020-03-03 17:00
1583279304410.0,0.0,0.0,77.69026181031688,0.4544677734375,0.472412109375,0.41259765625,0.63250732421875,0.24609375,1.20703125,-1.02734375,2.5729217529296875,3.0,2020-03-03 17:48:24.410000-06:00,2020-03-03 17:00
1583279304460.0,0.0,0.0,79.82627218303178,0.444091796875,0.489501953125,0.414794921875,0.6253662109375,0.21484375,0.46484375,-0.94921875,1.1632537841796875,3.0,2020-03-03 17:48:24.460000-06:00,2020-03-03 17:00
1583279304510.0,0.0,0.0,81.5731461291667,0.431640625,0.50274658203125,0.4171142578125,0.6220703125,0.171875,0.2578125,-0.4921875,0.3382568359375,3.0,2020-03-03 17:48:24.510000-06:00,2020-03-03 17:00
1583279304560.0,0.0,0.0,82.04604016599433,0.41448974609375,0.50311279296875,0.4215087890625,0.63037109375,1.015625,-0.24609375,-0.46484375,1.308135986328125,3.0,2020-03-03 17:48:24.560000-06:00,2020-03-03 17:00
1583279304610.0,0.0,0.0,81.46032587662384,0.40362548828125,0.49658203125,0.42327880859375,0.641357421875,0.8984375,0.47265625,-1.92578125,4.739227294921875,3.0,2020-03-03 17:48:24.610000-06:00,2020-03-03 17:00
1583279304660.0,0.0,0.0,81.09855273460184,0.4007568359375,0.4912109375,0.42584228515625,0.64556884765625,1.5390625,0.046875,-2.57421875,8.997512817382812,3.0,2020-03-03 17:48:24.660000-06:00,2020-03-03 17:00
1583279304710.0,0.0,0.0,80.54186099823539,0.3990478515625,0.4774169921875,0.435791015625,0.65032958984375,0.98046875,-0.359375,-1.41015625,3.079010009765625,3.0,2020-03-03 17:48:24.710000-06:00,2020-03-03 17:00
1583279304760.0,0.0,0.0,81.51063034624119,0.36175537109375,0.462646484375,0.4605712890625,0.66552734375,2.28515625,-0.25390625,-3.3515625,16.519378662109375,3.0,2020-03-03 17:48:24.760000-06:00,2020-03-03 17:00
1583279304810.0,0.0,0.0,82.5888225838215,0.3343505859375,0.446044921875,0.48638916015625,0.6728515625,0.6953125,-0.5234375,-1.09375,1.9537353515625,3.0,2020-03-03 17:48:24.810000-06:00,2020-03-03 17:00
1583279304860.0,0.0,0.0,82.94077414126184,0.31072998046875,0.42108154296875,0.5111083984375,0.68182373046875,1.51953125,-0.32421875,-1.0390625,3.493743896484375,3.0,2020-03-03 17:48:24.860000-06:00,2020-03-03 17:00
1583279304910.0,0.0,0.0,83.610440582835,0.2882080078125,0.38848876953125,0.54168701171875,0.68743896484375,1.66796875,-0.44140625,-0.671875,3.428375244140625,3.0,2020-03-03 17:48:24.910000-06:00,2020-03-03 17:00
1583279304960.0,0.0,0.0,85.30360756044041,0.2589111328125,0.35052490234375,0.579833984375,0.68841552734375,1.90234375,-0.765625,-1.07421875,5.359039306640625,3.0,2020-03-03 17:48:24.960000-06:00,2020-03-03 17:00
1583279305010.0,0.0,0.0,88.04920624537995,0.22479248046875,0.3118896484375,0.62103271484375,0.6829833984375,1.44140625,-0.69140625,-1.1484375,3.874603271484375,3.0,2020-03-03 17:48:25.010000-06:00,2020-03-03 17:00
1583279305060.0,0.0,0.0,90.73699453302126,0.19921875,0.27203369140625,0.6575927734375,0.6737060546875,0.9609375,-0.9453125,-1.046875,2.9129638671875,3.0,2020-03-03 17:48:25.060000-06:00,2020-03-03 17:00
1583279305120.0,0.0,0.0,92.68440791517408,0.18701171875,0.2322998046875,0.6851806640625,0.66455078125,0.37109375,-0.5625,-1.31640625,2.187042236328125,3.0,2020-03-03 17:48:25.120000-06:00,2020-03-03 17:00
1583279305160.0,0.0,0.0,93.90720451426974,0.18658447265625,0.1922607421875,0.705078125,0.6566162109375,0.81640625,-0.7265625,-1.83203125,4.550750732421875,3.0,2020-03-03 17:48:25.160000-06:00,2020-03-03 17:00
1583279305210.0,0.0,0.0,95.04437201662012,0.1806640625,0.16168212890625,0.7196044921875,0.65069580078125,0.4375,0.3984375,-2.97265625,9.186843872070312,3.0,2020-03-03 17:48:25.210000-06:00,2020-03-03 17:00
1583279305260.0,0.0,0.0,95.90280274784928,0.17230224609375,0.133544921875,0.73046875,0.647216796875,0.94140625,0.16015625,-2.73046875,8.367355346679688,3.0,2020-03-03 17:48:25.260000-06:00,2020-03-03 17:00
1583279305310.0,0.0,0.0,96.27484382516347,0.162109375,0.10870361328125,0.73675537109375,0.6473388671875,1.25390625,-0.453125,-2.55078125,8.284088134765625,3.0,2020-03-03 17:48:25.310000-06:00,2020-03-03 17:00
1583279305360.0,0.0,0.0,96.36276232131209,0.1522216796875,0.08746337890625,0.7401123046875,0.649169921875,1.16015625,-0.48828125,-2.09765625,5.984542846679688,3.0,2020-03-03 17:48:25.360000-06:00,2020-03-03 17:00
1583279305410.0,0.0,0.0,96.53087479174765,0.143310546875,0.06976318359375,0.74298095703125,0.65008544921875,1.0703125,-0.7265625,-2.03125,5.7994384765625,3.0,2020-03-03 17:48:25.410000-06:00,2020-03-03 17:00
1583279305460.0,0.0,0.0,97.37233297937216,0.13409423828125,0.05908203125,0.748779296875,0.64642333984375,1.140625,-0.87109375,-1.4921875,4.2864532470703125,3.0,2020-03-03 17:48:25.460000-06:00,2020-03-03 17:00
1583279305510.0,0.0,0.0,98.05614524272093,0.12109375,0.05377197265625,0.75311279296875,0.6444091796875,1.4453125,-0.55078125,-1.30078125,4.084320068359375,3.0,2020-03-03 17:48:25.510000-06:00,2020-03-03 17:00
1583279305560.0,0.0,0.0,97.9152171333485,0.1138916015625,0.04913330078125,0.75262451171875,0.64666748046875,1.91015625,-0.61328125,-1.3046875,5.727020263671875,3.0,2020-03-03 17:48:25.560000-06:00,2020-03-03 17:00
1583279305610.0,0.0,0.0,97.39536971553233,0.1031494140625,0.0440673828125,0.74993896484375,0.65191650390625,2.9765625,-0.265625,-1.6640625,11.6995849609375,3.0,2020-03-03 17:48:25.610000-06:00,2020-03-03 17:00
1583279305660.0,0.0,0.0,96.36454703268805,0.08782958984375,0.04095458984375,0.744140625,0.66094970703125,2.91796875,-0.04296875,-1.484375,10.719757080078123,3.0,2020-03-03 17:48:25.660000-06:00,2020-03-03 17:00
1583279305710.0,0.0,0.0,94.56273199042757,0.0677490234375,0.03533935546875,0.73382568359375,0.67498779296875,3.015625,-0.296875,-2.0703125,13.46832275390625,3.0,2020-03-03 17:48:25.710000-06:00,2020-03-03 17:00
1583279305760.0,0.0,0.0,92.59135832852077,0.04742431640625,0.02911376953125,0.72235107421875,0.6893310546875,2.51171875,-0.66015625,-1.7265625,9.725555419921877,3.0,2020-03-03 17:48:25.760000-06:00,2020-03-03 17:00
1583279305810.0,0.0,0.0,91.96054376578377,0.0225830078125,0.01971435546875,0.71881103515625,0.69451904296875,2.4375,-1.4921875,-1.125,9.43365478515625,3.0,2020-03-03 17:48:25.810000-06:00,2020-03-03 17:00
1583279305860.0,0.0,0.0,92.5649333266394,0.00128173828125,0.00732421875,0.72271728515625,0.69110107421875,1.18359375,-1.70703125,-0.59765625,4.672042846679688,3.0,2020-03-03 17:48:25.860000-06:00,2020-03-03 17:00
1583279305910.0,0.0,0.0,95.24124722495169,0.0196533203125,-0.0098876953125,-0.7386474609375,-0.67376708984375,0.703125,-1.46875,-0.60546875,3.0182037353515625,3.0,2020-03-03 17:48:25.910000-06:00,2020-03-03 17:00
1583279305960.0,0.0,0.0,98.30370651465272,0.03216552734375,-0.0225830078125,-0.756103515625,-0.65325927734375,0.0,-1.4921875,-1.46875,4.38385009765625,3.0,2020-03-03 17:48:25.960000-06:00,2020-03-03 17:00
1583279306020.0,0.0,0.0,103.74200049937059,0.043701171875,-0.05389404296875,-0.7847900390625,-0.61590576171875,-0.16015625,-1.7109375,-2.078125,7.2715606689453125,3.0,2020-03-03 17:48:26.020000-06:00,2020-03-03 17:00
1583279306060.0,0.0,0.0,110.79729452231308,0.064453125,-0.07574462890625,-0.81964111328125,-0.564208984375,1.3359375,-1.00390625,-3.6640625,16.217910766601562,3.0,2020-03-03 17:48:26.060000-06:00,2020-03-03 17:00
1583279306110.0,0.0,0.0,117.14777055325467,0.092529296875,-0.07470703125,-0.85003662109375,-0.51312255859375,1.75390625,-2.15625,-2.68359375,14.927276611328125,3.0,2020-03-03 17:48:26.110000-06:00,2020-03-03 17:00
1583279306160.0,0.0,0.0,120.09547850569948,0.125,-0.0562744140625,-0.8646240234375,-0.4833984375,2.0234375,-2.8125,-2.51953125,18.35249328613281,3.0,2020-03-03 17:48:26.160000-06:00,2020-03-03 17:00
1583279306210.0,0.0,0.0,116.9403192275708,0.14691162109375,-0.0662841796875,-0.84979248046875,-0.50189208984375,0.95703125,-1.1796875,-3.84765625,17.112030029296875,3.0,2020-03-03 17:48:26.210000-06:00,2020-03-03 17:00
1583279306260.0,0.0,0.0,114.14521398770908,0.150146484375,-0.06964111328125,-0.83648681640625,-0.5224609375,-0.22265625,1.13671875,-3.30859375,12.288497924804688,3.0,2020-03-03 17:48:26.260000-06:00,2020-03-03 17:00
1583279306310.0,0.0,0.0,113.85778307514776,0.16961669921875,-0.0784912109375,-0.83428955078125,-0.51861572265625,1.1328125,0.73828125,-2.41015625,7.637176513671875,3.0,2020-03-03 17:48:26.310000-06:00,2020-03-03 17:00
1583279306360.0,0.0,0.0,115.73496846285029,0.22003173828125,-0.122314453125,-0.83795166015625,-0.4842529296875,-0.51953125,2.28515625,-3.92578125,20.903610229492188,3.0,2020-03-03 17:48:26.360000-06:00,2020-03-03 17:00
1583279306410.0,0.0,0.0,114.79812957009672,0.25225830078125,-0.15850830078125,-0.827392578125,-0.47607421875,-1.1484375,3.8828125,-6.47265625,58.29042053222656,3.0,2020-03-03 17:48:26.410000-06:00,2020-03-03 17:00
1583279306460.0,0.0,0.0,111.52721677500055,0.2459716796875,-0.17779541015625,-0.807373046875,-0.5059814453125,-0.203125,0.0859375,-6.0703125,36.8973388671875,3.0,2020-03-03 17:48:26.460000-06:00,2020-03-03 17:00
1583279306510.0,0.0,0.0,109.57829611511394,0.24365234375,-0.1923828125,-0.7940673828125,-0.5225830078125,-0.33203125,-1.109375,-5.19140625,28.291656494140625,3.0,2020-03-03 17:48:26.510000-06:00,2020-03-03 17:00
1583279306560.0,0.0,0.0,110.3773803973673,0.2596435546875,-0.20849609375,-0.79412841796875,-0.5084228515625,-0.3046875,-1.69140625,-1.97265625,6.845062255859375,3.0,2020-03-03 17:48:26.560000-06:00,2020-03-03 17:00
1583279306610.0,0.0,0.0,111.08146763807336,0.2734375,-0.21197509765625,-0.79681396484375,-0.495361328125,-0.51953125,-1.265625,-0.1328125,1.8893585205078125,3.0,2020-03-03 17:48:26.610000-06:00,2020-03-03 17:00
1583279306660.0,0.0,0.0,111.21319231197565,0.2989501953125,-0.20843505859375,-0.79840087890625,-0.479248046875,1.29296875,-2.1953125,0.3203125,6.593765258789063,3.0,2020-03-03 17:48:26.660000-06:00,2020-03-03 17:00
1583279306710.0,0.0,0.0,112.49654276308478,0.33563232421875,-0.21087646484375,-0.80426025390625,-0.4427490234375,1.53125,-0.50390625,0.84375,3.3105621337890625,3.0,2020-03-03 17:48:26.710000-06:00,2020-03-03 17:00
1583279306760.0,0.0,0.0,121.85009894317749,0.340576171875,-0.26739501953125,-0.83209228515625,-0.3466796875,1.5625,-0.09765625,1.79296875,5.665679931640625,3.0,2020-03-03 17:48:26.760000-06:00,2020-03-03 17:00
1583279306810.0,0.0,0.0,129.2467043006198,0.35003662109375,-0.3231201171875,-0.84375,-0.24725341796875,1.203125,-0.41015625,3.375,13.006362915039062,3.0,2020-03-03 17:48:26.810000-06:00,2020-03-03 17:00
1583279306860.0,0.0,0.0,134.81077665398658,0.35577392578125,-0.36444091796875,-0.8482666015625,-0.14501953125,1.0,2.265625,4.07421875,22.73231506347656,3.0,2020-03-03 17:48:26.860000-06:00,2020-03-03 17:00
1583279306910.0,0.0,0.0,137.10055183591712,0.36236572265625,-0.3935546875,-0.84344482421875,-0.04925537109375,1.43359375,1.35546875,2.26171875,9.007858276367188,3.0,2020-03-03 17:48:26.910000-06:00,2020-03-03 17:00
1583279306970.0,0.0,0.0,134.5508769237418,0.38104248046875,-0.40863037109375,-0.826904296875,0.0633544921875,0.9609375,2.16796875,0.5703125,5.9487457275390625,3.0,2020-03-03 17:48:26.970000-06:00,2020-03-03 17:00
1583279307010.0,0.0,0.0,126.95478282986322,0.422607421875,-0.49737548828125,-0.7437744140625,0.14422607421875,-0.65625,1.96484375,-0.2421875,4.3499298095703125,3.0,2020-03-03 17:48:27.010000-06:00,2020-03-03 17:00
1583279307060.0,0.0,0.0,122.64576024016368,0.4359130859375,-0.51885986328125,-0.70745849609375,0.20062255859375,5.8671875,1.703125,1.3984375,39.2801513671875,3.0,2020-03-03 17:48:27.060000-06:00,2020-03-03 17:00
1583279307110.0,0.0,0.0,119.76895864269285,0.4698486328125,-0.5068359375,-0.70098876953125,0.17608642578125,6.734375,1.76953125,0.50390625,48.73696899414063,3.0,2020-03-03 17:48:27.110000-06:00,2020-03-03 17:00
1583279307160.0,0.0,0.0,119.24474860223808,0.47454833984375,-0.5098876953125,-0.6959228515625,0.1748046875,3.07421875,-1.89453125,-2.21484375,17.945602416992188,3.0,2020-03-03 17:48:27.160000-06:00,2020-03-03 17:00
1583279307210.0,0.0,0.0,119.7158989500462,0.46795654296875,-0.51470947265625,-0.6949462890625,0.18218994140625,4.37109375,-0.95703125,-2.421875,25.887847900390625,3.0,2020-03-03 17:48:27.210000-06:00,2020-03-03 17:00
1583279307260.0,0.0,0.0,120.97631123964966,0.45367431640625,-0.51519775390625,-0.70135498046875,0.19189453125,2.12890625,1.1640625,-0.640625,6.2976837158203125,3.0,2020-03-03 17:48:27.260000-06:00,2020-03-03 17:00
1583279307310.0,0.0,0.0,119.69569462113638,0.44488525390625,-0.49945068359375,-0.70587158203125,0.23321533203125,2.953125,5.2578125,0.90234375,37.17976379394531,3.0,2020-03-03 17:48:27.310000-06:00,2020-03-03 17:00
1583279307360.0,0.0,0.0,117.31665957730465,0.43988037109375,-0.4796142578125,-0.70672607421875,0.27764892578125,2.1953125,4.47265625,0.17578125,24.854949951171875,3.0,2020-03-03 17:48:27.360000-06:00,2020-03-03 17:00
1583279307410.0,0.0,0.0,113.42698122831928,0.452392578125,-0.4541015625,-0.70184326171875,0.31072998046875,-0.17578125,0.6640625,0.12109375,0.486541748046875,3.0,2020-03-03 17:48:27.410000-06:00,2020-03-03 17:00
1583279307460.0,0.0,0.0,111.95052633892747,0.45806884765625,-0.4361572265625,-0.70477294921875,0.3214111328125,0.765625,-2.07421875,-1.328125,6.6524810791015625,3.0,2020-03-03 17:48:27.460000-06:00,2020-03-03 17:00
1583279307510.0,0.0,0.0,112.3321439406433,0.4471435546875,-0.4404296875,-0.70428466796875,0.331787109375,1.73828125,-3.265625,-1.14453125,14.995880126953125,3.0,2020-03-03 17:48:27.510000-06:00,2020-03-03 17:00
1583279307560.0,0.0,0.0,112.40710493217999,0.44842529296875,-0.436279296875,-0.707275390625,0.3291015625,-0.234375,1.73046875,0.15234375,3.072662353515625,3.0,2020-03-03 17:48:27.560000-06:00,2020-03-03 17:00
1583279307610.0,0.0,0.0,112.20740308197216,0.4521484375,-0.43365478515625,-0.707763671875,0.32647705078125,-0.140625,0.765625,0.19921875,0.6456451416015625,3.0,2020-03-03 17:48:27.610000-06:00,2020-03-03 17:00
1583279307660.0,0.0,0.0,111.09940806172096,0.45721435546875,-0.42889404296875,-0.70428466796875,0.33306884765625,0.73046875,2.40625,-0.359375,6.4527740478515625,3.0,2020-03-03 17:48:27.660000-06:00,2020-03-03 17:00
1583279307710.0,0.0,0.0,110.91631487715358,0.45672607421875,-0.43048095703125,-0.7022705078125,0.33599853515625,0.8671875,-0.16796875,-0.1484375,0.8022613525390625,3.0,2020-03-03 17:48:27.710000-06:00,2020-03-03 17:00
1583279307760.0,0.0,0.0,110.49368936334714,0.4566650390625,-0.4334716796875,-0.69793701171875,0.34112548828125,1.15234375,0.4453125,-0.26953125,1.598846435546875,3.0,2020-03-03 17:48:27.760000-06:00,2020-03-03 17:00
1583279307810.0,0.0,0.0,110.4418898549538,0.4620361328125,-0.43408203125,-0.697265625,0.33447265625,0.234375,1.09765625,-0.171875,1.2893218994140625,3.0,2020-03-03 17:48:27.810000-06:00,2020-03-03 17:00
1583279307860.0,0.0,0.0,110.69442037985684,0.467041015625,-0.4366455078125,-0.6971435546875,0.32427978515625,0.43359375,0.17578125,-0.09375,0.227691650390625,3.0,2020-03-03 17:48:27.860000-06:00,2020-03-03 17:00
1583279307910.0,0.0,0.0,110.5008175958538,0.47601318359375,-0.4315185546875,-0.69921875,0.31353759765625,1.02734375,1.94140625,0.01953125,4.824874877929688,3.0,2020-03-03 17:48:27.910000-06:00,2020-03-03 17:00
1583279307960.0,0.0,0.0,110.27998397613602,0.48101806640625,-0.43157958984375,-0.6978759765625,0.3087158203125,1.1796875,0.67578125,-0.2421875,1.9069976806640625,3.0,2020-03-03 17:48:27.960000-06:00,2020-03-03 17:00
1583279308010.0,0.0,0.0,110.06085370078155,0.48138427734375,-0.42584228515625,-0.70013427734375,0.31109619140625,1.72265625,0.8984375,-0.70703125,4.274627685546875,3.0,2020-03-03 17:48:28.010000-06:00,2020-03-03 17:00
1583279308060.0,0.0,0.0,109.52091057740827,0.48211669921875,-0.419677734375,-0.70068359375,0.3170166015625,1.0625,1.15234375,-0.2109375,2.5012969970703125,3.0,2020-03-03 17:48:28.060000-06:00,2020-03-03 17:00
1583279308110.0,0.0,0.0,109.31079017799509,0.48236083984375,-0.41656494140625,-0.7012939453125,0.3193359375,0.56640625,0.58203125,-0.13671875,0.6782684326171875,3.0,2020-03-03 17:48:28.110000-06:00,2020-03-03 17:00
1583279308160.0,0.0,0.0,109.77337874213372,0.4813232421875,-0.419189453125,-0.70245361328125,0.31494140625,0.51171875,-0.65625,-0.47265625,0.915924072265625,3.0,2020-03-03 17:48:28.160000-06:00,2020-03-03 17:00
1583279308210.0,0.0,0.0,110.22248021209471,0.4788818359375,-0.41876220703125,-0.705322265625,0.31280517578125,1.12890625,1.203125,-0.171875,2.7514801025390625,3.0,2020-03-03 17:48:28.210000-06:00,2020-03-03 17:00
1583279308260.0,0.0,0.0,110.44756962401729,0.47711181640625,-0.4193115234375,-0.706298828125,0.31256103515625,1.0625,1.0703125,-0.19921875,2.3141632080078125,3.0,2020-03-03 17:48:28.260000-06:00,2020-03-03 17:00
1583279308310.0,0.0,0.0,110.22065527170996,0.479248046875,-0.4176025390625,-0.70599365234375,0.312255859375,0.27734375,0.93359375,0.0703125,0.953460693359375,3.0,2020-03-03 17:48:28.310000-06:00,2020-03-03 17:00
1583279308360.0,0.0,0.0,109.78709404803992,0.4832763671875,-0.42041015625,-0.7017822265625,0.31170654296875,0.0703125,0.83984375,-0.0625,0.7141876220703125,3.0,2020-03-03 17:48:28.360000-06:00,2020-03-03 17:00
1583279308410.0,0.0,0.0,109.71226213801305,0.48699951171875,-0.4210205078125,-0.70098876953125,0.306884765625,0.31640625,0.50390625,-0.0703125,0.358978271484375,3.0,2020-03-03 17:48:28.410000-06:00,2020-03-03 17:00
1583279308460.0,0.0,0.0,109.27444609063964,0.49029541015625,-0.419677734375,-0.69921875,0.3074951171875,0.7578125,1.4140625,-0.25,2.6363525390625,3.0,2020-03-03 17:48:28.460000-06:00,2020-03-03 17:00
1583279308510.0,0.0,0.0,108.58843613120628,0.49603271484375,-0.413330078125,-0.698974609375,0.30755615234375,0.51953125,1.0234375,-0.25,1.3798370361328125,3.0,2020-03-03 17:48:28.510000-06:00,2020-03-03 17:00
1583279308560.0,0.0,0.0,107.60630147609051,0.4996337890625,-0.40771484375,-0.6964111328125,0.3148193359375,1.3359375,0.9765625,-0.40625,2.9034423828125,3.0,2020-03-03 17:48:28.560000-06:00,2020-03-03 17:00
1583279308610.0,0.0,0.0,107.3679311884654,0.50323486328125,-0.39947509765625,-0.69976806640625,0.312255859375,0.6875,0.10546875,-0.33984375,0.599273681640625,3.0,2020-03-03 17:48:28.610000-06:00,2020-03-03 17:00
1583279308660.0,0.0,0.0,107.90560539904648,0.50091552734375,-0.39898681640625,-0.7032470703125,0.308837890625,0.875,-0.328125,-0.515625,1.13916015625,3.0,2020-03-03 17:48:28.660000-06:00,2020-03-03 17:00
1583279308710.0,0.0,0.0,108.37048428992708,0.50201416015625,-0.38983154296875,-0.7110595703125,0.3006591796875,0.6640625,1.13671875,-0.24609375,1.793670654296875,3.0,2020-03-03 17:48:28.710000-06:00,2020-03-03 17:00
1583279308760.0,0.0,0.0,108.61518484311856,0.5048828125,-0.37841796875,-0.7186279296875,0.29241943359375,0.38671875,0.83203125,-0.03515625,0.8430633544921875,3.0,2020-03-03 17:48:28.760000-06:00,2020-03-03 17:00
1583279308810.0,0.0,0.0,108.85515176944843,0.50518798828125,-0.37213134765625,-0.7232666015625,0.2884521484375,0.3828125,-0.15234375,0.05078125,0.172332763671875,3.0,2020-03-03 17:48:28.810000-06:00,2020-03-03 17:00
1583279308860.0,0.0,0.0,109.12250308805905,0.50677490234375,-0.36322021484375,-0.72930908203125,0.28179931640625,0.4921875,0.046875,-0.1328125,0.2620849609375,3.0,2020-03-03 17:48:28.860000-06:00,2020-03-03 17:00
1583279308910.0,0.0,0.0,110.94791395254398,0.50537109375,-0.35638427734375,-0.7427978515625,0.256591796875,0.54296875,-1.4609375,-0.1171875,2.4428863525390625,3.0,2020-03-03 17:48:28.910000-06:00,2020-03-03 17:00
1583279308960.0,0.0,0.0,113.07765073892207,0.5040283203125,-0.34619140625,-0.759033203125,0.2235107421875,0.87890625,-1.3984375,-0.67578125,3.184783935546875,3.0,2020-03-03 17:48:28.960000-06:00,2020-03-03 17:00
1583279309010.0,0.0,0.0,116.5691833852969,0.4913330078125,-0.32159423828125,-0.78753662109375,0.18695068359375,2.3203125,-2.30078125,-0.9375,11.556350708007812,3.0,2020-03-03 17:48:29.010000-06:00,2020-03-03 17:00
1583279309060.0,0.0,0.0,124.21030869918847,0.453125,-0.30712890625,-0.8287353515625,0.11651611328125,5.40625,-6.45703125,-3.11328125,80.61331176757812,3.0,2020-03-03 17:48:29.060000-06:00,2020-03-03 17:00
1583279309120.0,0.0,0.0,131.80089801776973,0.4056396484375,-0.31201171875,-0.85784912109375,0.04656982421875,4.97265625,-8.1171875,0.05078125,90.61862182617188,3.0,2020-03-03 17:48:29.120000-06:00,2020-03-03 17:00
1583279309160.0,0.0,0.0,133.83439443247823,0.39129638671875,-0.27349853515625,-0.87835693359375,-0.02496337890625,-1.3828125,1.8515625,1.484375,7.5438232421875,3.0,2020-03-03 17:48:29.160000-06:00,2020-03-03 17:00
1583279309210.0,0.0,0.0,132.89298038219417,0.384521484375,-0.2459716796875,-0.883056640625,-0.108642578125,-1.296875,-4.359375,3.0,29.68603515625,3.0,2020-03-03 17:48:29.210000-06:00,2020-03-03 17:00
1583279309260.0,0.0,0.0,129.5194852919491,0.39471435546875,-0.2264404296875,-0.875732421875,-0.161376953125,-3.44921875,-2.68359375,3.28515625,29.89103698730469,3.0,2020-03-03 17:48:29.260000-06:00,2020-03-03 17:00
1583279309310.0,0.0,0.0,123.98366268135841,0.42327880859375,-0.18096923828125,-0.8641357421875,-0.203369140625,-3.08203125,-1.30078125,2.1328125,15.739837646484375,3.0,2020-03-03 17:48:29.310000-06:00,2020-03-03 17:00
1583279309360.0,0.0,0.0,115.34266610759,0.48162841796875,-0.1407470703125,-0.83319091796875,-0.232421875,-1.88671875,3.01953125,1.671875,15.472442626953125,3.0,2020-03-03 17:48:29.360000-06:00,2020-03-03 17:00
1583279309420.0,0.0,0.0,110.96206181571613,0.519775390625,-0.13055419921875,-0.81353759765625,-0.22576904296875,0.30078125,-0.66015625,-1.06640625,1.6634979248046875,3.0,2020-03-03 17:48:29.420000-06:00,2020-03-03 17:00
1583279309470.0,0.0,0.0,107.99253641203904,0.5501708984375,-0.13800048828125,-0.797119140625,-0.20703125,1.0625,-0.46875,-0.12890625,1.3652496337890625,3.0,2020-03-03 17:48:29.470000-06:00,2020-03-03 17:00
1583279309520.0,0.0,0.0,107.51246138636937,0.56982421875,-0.17547607421875,-0.78717041015625,-0.15753173828125,-0.34765625,-0.30078125,0.01171875,0.2114715576171875,3.0,2020-03-03 17:48:29.520000-06:00,2020-03-03 17:00
1583279309570.0,0.0,0.0,111.81674538639076,0.54931640625,-0.20159912109375,-0.80322265625,-0.1114501953125,3.43359375,0.33984375,-0.3984375,12.063812255859375,3.0,2020-03-03 17:48:29.570000-06:00,2020-03-03 17:00
1583279309620.0,0.0,0.0,116.05254566835777,0.51202392578125,-0.20849609375,-0.822265625,-0.135009765625,3.3125,-1.375,-1.90625,16.4970703125,3.0,2020-03-03 17:48:29.620000-06:00,2020-03-03 17:00
1583279309670.0,0.0,0.0,115.92348097042256,0.49688720703125,-0.2142333984375,-0.8201904296875,-0.18585205078125,2.28125,-1.3203125,-2.71484375,14.317703247070312,3.0,2020-03-03 17:48:29.670000-06:00,2020-03-03 17:00
1583279309720.0,0.0,0.0,113.04771548007031,0.4915771484375,-0.2125244140625,-0.80657958984375,-0.25018310546875,2.203125,-2.3671875,-3.64453125,23.73994445800781,3.0,2020-03-03 17:48:29.720000-06:00,2020-03-03 17:00
1583279309770.0,0.0,0.0,111.22339706939422,0.47222900390625,-0.2193603515625,-0.7955322265625,-0.309814453125,0.53125,-1.57421875,-2.05078125,6.966094970703125,3.0,2020-03-03 17:48:29.770000-06:00,2020-03-03 17:00
1583279309820.0,0.0,0.0,110.85957099217748,0.45977783203125,-0.21905517578125,-0.79376220703125,-0.33251953125,0.0546875,-2.671875,-0.35546875,7.268264770507812,3.0,2020-03-03 17:48:29.820000-06:00,2020-03-03 17:00
1583279309870.0,0.0,0.0,112.7387079454878,0.45263671875,-0.2188720703125,-0.8033447265625,-0.31915283203125,0.359375,-2.1484375,-0.4453125,4.9432373046875,3.0,2020-03-03 17:48:29.870000-06:00,2020-03-03 17:00
1583279309920.0,0.0,0.0,115.32123165377291,0.43951416015625,-0.22216796875,-0.815185546875,-0.30499267578125,-0.7265625,-1.03515625,-0.30859375,1.694671630859375,3.0,2020-03-03 17:48:29.920000-06:00,2020-03-03 17:00
1583279309970.0,0.0,0.0,117.13494812385294,0.4322509765625,-0.21978759765625,-0.824462890625,-0.291748046875,-0.4453125,-0.703125,-2.4140625,6.5203857421875,3.0,2020-03-03 17:48:29.970000-06:00,2020-03-03 17:00
1583279310020.0,0.0,0.0,120.034394236238,0.4171142578125,-0.219970703125,-0.8377685546875,-0.27520751953125,-0.4296875,-1.03515625,-1.97265625,5.147552490234375,3.0,2020-03-03 17:48:30.020000-06:00,2020-03-03 17:00
1583279310070.0,0.0,0.0,122.31136511836479,0.41015625,-0.22283935546875,-0.84710693359375,-0.25396728515625,-0.09375,-0.3046875,-2.23046875,5.0766143798828125,3.0,2020-03-03 17:48:30.070000-06:00,2020-03-03 17:00
1583279310120.0,0.0,0.0,123.6420180131148,0.40899658203125,-0.22772216796875,-0.8515625,-0.236083984375,-0.1484375,-0.09765625,-1.71484375,2.972259521484375,3.0,2020-03-03 17:48:30.120000-06:00,2020-03-03 17:00
1583279310170.0,0.0,0.0,124.68758795348292,0.4031982421875,-0.230712890625,-0.85516357421875,-0.22991943359375,-0.14453125,-0.4140625,-1.60546875,2.769866943359375,3.0,2020-03-03 17:48:30.170000-06:00,2020-03-03 17:00
1583279310220.0,0.0,0.0,125.8078815896443,0.39617919921875,-0.23480224609375,-0.85870361328125,-0.22467041015625,-0.12109375,-1.1953125,-1.265625,3.0452423095703125,3.0,2020-03-03 17:48:30.220000-06:00,2020-03-03 17:00
1583279310270.0,0.0,0.0,126.90833844680202,0.38714599609375,-0.240966796875,-0.86151123046875,-0.2232666015625,-0.1640625,-0.703125,-1.25390625,2.0935821533203125,3.0,2020-03-03 17:48:30.270000-06:00,2020-03-03 17:00
1583279310320.0,0.0,0.0,127.98298906643612,0.37518310546875,-0.2418212890625,-0.8656005859375,-0.22705078125,0.359375,-1.1015625,-0.66796875,1.7887725830078125,3.0,2020-03-03 17:48:30.320000-06:00,2020-03-03 17:00
1583279310370.0,0.0,0.0,128.62031783287688,0.37017822265625,-0.24383544921875,-0.8675537109375,-0.22564697265625,0.546875,-0.97265625,-0.87890625,2.017608642578125,3.0,2020-03-03 17:48:30.370000-06:00,2020-03-03 17:00
