Time,accX,accY,accZ
1582925945831,5.529443,-2.256377,7.043819
1582925945852,6.0157294,-2.074319,7.5301056
1582925945872,6.104363,-2.074319,7.388771
1582925945892,6.1594596,-2.1725345,7.513337
1582925945911,5.951051,-2.0958786,7.522919
1582925945931,6.0253115,-2.064737,7.561247
1582925945952,6.0540576,-1.978499,7.0893335
1582925945972,6.022916,-2.0383866,7.647485
1582925945991,6.181019,-2.040782,7.3576293
1582925946011,6.1642504,-1.968917,7.9133854
1582925946031,6.305585,-1.93538,6.5910697
1582925946052,6.0971766,-1.815605,7.882244
1582925946071,6.0061474,-1.8419555,7.5348964
1582925946091,6.2648616,-1.877888,7.5492697
1582925946111,6.200183,-1.8371645,7.3384657
1582925946131,6.296003,-1.8611195,7.4678226
1582925946150,6.2217426,-1.7940454,7.302533
1582925946172,6.262466,-1.7940454,7.5061507
1582925946191,6.1738324,-1.7940454,7.4007487
1582925946211,6.248093,-1.868306,7.475009
1582925946230,6.142691,-1.83956,7.4438677
1582925946251,6.2121606,-1.829978,7.451054
1582925946270,6.200183,-1.88747,7.460636
1582925946290,6.324749,-1.8659105,7.2378545
1582925946310,6.238511,-2.0000584,7.312115
1582925946330,6.588254,-2.275541,7.843916
1582925946350,5.8288803,-1.7844635,6.7875004
1582925946369,6.2600703,-2.0958786,7.733723
1582925946390,6.219347,-2.261168,7.254623
1582925946410,6.0492663,-2.146184,7.2618093
1582925946430,6.0923853,-2.179721,7.355234
1582925946450,5.112626,-1.6742705,8.193659
1582925946470,5.4120636,-1.3101546,8.521843
1582925946490,6.4996204,-2.457599,6.7347994
1582925946509,6.228929,-2.424062,7.4774046
1582925946529,6.2217426,-2.2971005,6.9120665
1582925946550,6.71282,-2.975027,6.8210373
1582925946569,6.1211314,-2.9199305,7.0174685
1582925946589,6.1738324,-2.6420524,7.1611986
1582925946609,6.1115494,-2.3210554,7.379189
1582925946630,6.032498,-2.3450105,7.446263
1582925946650,6.0923853,-2.347406,7.2138996
1582925946669,6.123527,-2.46239,7.3959575
1582925946689,6.219347,-2.481554,7.427099
1582925946709,5.975006,-2.1916986,7.1707807
1582925946729,6.382241,-2.610911,6.627002
1582925946750,5.9726105,-2.179721,8.303852
1582925946769,6.075617,-2.3114736,7.316906
1582925946789,6.2265334,-2.376152,7.053401
1582925946809,6.219347,-2.1916986,7.2857647
1582925946829,6.109154,-2.17493,7.451054
1582925946849,6.0780125,-2.265959,7.221086
1582925946869,6.1642504,-2.2875185,6.909671
1582925946889,6.104363,-2.2252355,7.6115527
1582925946909,5.94626,-1.959335,8.24636
1582925946929,5.9151187,-1.580846,8.023579
1582925946949,6.1259227,-2.0048494,7.230668
1582925946969,6.0588484,-2.203676,7.2378545
1582925946989,6.075617,-2.184512,7.6067615
1582925947008,6.1163406,-2.347406,7.1468253
1582925947028,6.1067586,-2.395316,7.297742
1582925947049,6.1163406,-2.380943,7.3336744
1582925947068,5.9342823,-2.361779,7.3336744
1582925947088,6.0348935,-2.3977115,7.2378545
1582925947108,6.0971766,-2.438435,7.3240924
1582925947128,6.1402955,-2.486345,7.393562
1582925947148,5.9582376,-2.452808,7.3863754
1582925947169,6.027707,-2.4072936,7.355234
1582925947188,6.027707,-2.328242,7.340861
1582925947208,6.0061474,-2.4456215,7.4007487
1582925947228,6.027707,-2.500718,7.3959575
1582925947248,6.099572,-2.4025025,7.331279
1582925947268,6.0157294,-2.3545926,7.3480477
1582925947289,5.94626,-2.4168756,7.4390764
1582925947308,6.022916,-2.443226,7.379189
1582925947329,6.094781,-2.471972,7.3480477
1582925947349,6.0540576,-2.46239,7.355234
1582925947369,5.9294915,-2.122229,7.6355076
1582925947389,6.037289,-2.6660075,7.211504
1582925947408,6.0492663,-2.486345,7.230668
1582925947428,6.0828037,-2.524673,7.4342856
1582925947449,6.0301027,-2.5893514,7.364816
1582925947469,6.046871,-2.529464,7.2905555
1582925947489,6.027707,-2.500718,7.3001375
1582925947508,6.056453,-2.2396085,7.4486585
1582925947528,6.166646,-2.8336926,7.1468253
1582925947549,5.8863726,-2.543837,7.355234
1582925947568,6.190601,-2.5462325,7.312115
1582925947589,6.0971766,-2.481554,7.2426453
1582925947608,6.066035,-2.591747,7.2474365
1582925947628,6.1211314,-2.539046,7.086938
1582925947649,6.142691,-2.4983225,7.245041
1582925947668,6.1067586,-2.4743676,7.2043176
1582925947688,6.228929,-2.41448,7.4821954
1582925947708,6.530762,-2.471972,7.1659894
1582925947728,6.315167,-2.5079045,6.986327
1582925947748,6.319958,-2.2012806,7.3049283
1582925947768,6.2361155,-2.3689654,7.360025
1582925947788,6.1546683,-2.615702,7.0557966
1582925947807,6.003752,-4.5392885,7.0078864
1582925947828,6.18581,-3.1834354,6.732404
1582925947847,6.406196,0.5727085,7.312115
1582925947868,6.109154,-0.9412475,8.083466
1582925947888,6.109154,-2.438435,7.345652
1582925947908,6.315167,-2.0383866,7.2474365
1582925947927,6.617,-1.7509265,7.1851535
1582925947947,6.118736,-1.782068,7.407935
1582925947968,6.305585,-2.2779365,7.211504
1582925947987,6.257675,-2.3066826,7.5875974
1582925948007,6.3846364,-2.495927,7.019864
1582925948027,6.3031893,-2.280332,7.3288836
1582925948048,6.52118,-1.825187,7.1180797
1582925948067,6.4038005,-2.0767145,7.19234
1582925948087,6.171437,-2.1916986,7.307324
1582925948106,6.1786237,-1.8132095,7.4199123
1582925948127,6.3271446,-1.954544,7.3815846
1582925948147,6.324749,-2.788178,7.0941243
1582925948166,6.2121606,-2.816924,6.895298
1582925948186,6.2744436,-2.745059,7.0797515
1582925948206,6.2696524,-2.7522454,7.0414233
1582925948227,6.1498775,-2.6420524,7.1755714
1582925948247,6.291212,-2.677985,7.0941243
1582925948266,6.3175626,-2.6276796,7.010282
1582925948285,6.2361155,-2.7378726,7.149221
1582925948305,6.224138,-2.6995444,7.09652
1582925948325,6.339122,-2.649239,7.039028
1582925948346,6.1834145,-2.634866,7.0557966
1582925948366,6.118736,-2.5318594,7.053401
1582925948385,6.602627,-2.4599946,6.646166
1582925948405,5.759411,-2.5126956,7.7600737
1582925948424,4.446677,-1.556891,8.893145
1582925948445,6.3846364,-3.6481626,6.9360213
1582925948465,8.586101,-2.7282906,5.3693643
1582925948485,6.099572,-3.042101,6.7827096
1582925948505,5.8719993,-2.94149,7.2282724
1582925948524,7.139219,-1.74374,6.4569216
1582925948545,7.04819,-1.786859,6.6868896
1582925948564,6.449315,-2.572583,7.130057
1582925948585,6.37745,-2.730686,7.14443
1582925948604,7.0266304,-1.916216,6.689285
1582925948624,7.148801,-1.576055,6.823433
1582925948645,7.2757626,-2.088692,7.1803627
1582925948664,6.6337686,-2.361779,6.526391
1582925948685,6.990698,-2.1246245,6.636584
1582925948704,6.6241865,-1.7078075,6.7539635
1582925948725,6.4469194,-1.930589,6.9983044
1582925948744,6.9308105,-2.2683544,6.7875004
1582925948764,6.66491,-1.7509265,6.804269
1582925948784,6.8301997,-2.0096405,7.0701694
1582925948805,6.5906496,-1.60001,7.412726
1582925948824,6.3558903,-1.058627,6.818642
1582925948844,6.8206177,-1.4490935,6.8689475
1582925948864,6.8397813,-1.7557175,7.4199123
1582925948883,6.6146045,-1.5305405,7.082147
1582925948904,6.688865,-1.4826305,7.0653787
1582925948924,6.799058,-1.494608,7.077356
1582925948944,6.8110356,-1.595219,6.976745
1582925948964,6.7391706,-1.7365535,7.2091084
1582925948984,6.803849,-0.972389,6.703658
1582925949004,7.009862,-1.302968,6.895298
1582925949023,8.159702,-2.2971005,5.7574353
1582925949043,6.573881,-2.4791584,6.607838
1582925949063,4.7029953,-1.9042385,8.876376
1582925949083,5.701919,-1.3197365,8.148145
1582925949103,6.794267,-1.777277,6.8306193
1582925949123,6.837386,-1.8515375,6.66533
1582925949143,6.525971,-1.9425665,6.7539635
1582925949163,7.043399,-2.706731,6.986327
1582925949183,7.0410037,-2.6228886,6.660539
1582925949203,6.066035,-0.752003,7.666649
1582925949224,5.721083,-0.9652025,8.081071
1582925949244,6.617,-2.098274,6.9887223
1582925949263,6.7247977,-1.734158,7.139639
1582925949283,6.7391706,-1.6407335,7.0510054
1582925949304,6.645746,-1.925798,7.259414
1582925949323,6.4612923,-1.9281934,6.9839315
1582925949343,6.6385593,-1.734158,7.0318413
1582925949363,6.612209,-1.820396,7.062983
1582925949383,6.4804564,-1.949753,7.077356
1582925949404,6.4085913,-1.8707016,7.24025
1582925949423,6.727193,-1.7700905,6.914462
1582925949443,6.708029,-1.8467464,7.015073
1582925949463,6.8349905,-1.815605,6.8593655
1582925949483,6.6289773,-1.8419555,7.187549
1582925949503,6.7679167,-1.7844635,7.1037064
1582925949523,6.6385593,-1.729367,6.9599767
1582925949543,6.123527,-1.9042385,7.3336744
1582925949562,6.573881,-1.901843,7.115684
1582925949583,6.9116464,-1.88747,6.971954
1582925949603,6.4852476,-1.93538,6.9887223
1582925949623,6.3271446,-1.921007,7.1228704
1582925949643,6.56909,-1.8754925,7.0845423
1582925949663,6.655328,-1.997663,7.0845423
1582925949683,6.95237,-2.040782,6.7252173
1582925949702,7.81475,-2.352197,5.908352
1582925949723,6.075617,-1.7317625,7.3432565
1582925949742,5.8336716,-1.50419,7.8990126
1582925949762,6.2217426,-1.9042385,7.4869866
1582925949782,6.8493633,-2.0144315,6.6293974
1582925949802,7.0505853,-1.9569395,6.4665036
Time,accX,accY,accZ
1582925945831,5.529443,-2.256377,7.043819
1582925945852,6.0157294,-2.074319,7.5301056
1582925945872,6.104363,-2.074319,7.388771
1582925945892,6.1594596,-2.1725345,7.513337
1582925945911,5.951051,-2.0958786,7.522919
1582925945931,6.0253115,-2.064737,7.561247
1582925945952,6.0540576,-1.978499,7.0893335
1582925945972,6.022916,-2.0383866,7.647485
1582925945991,6.181019,-2.040782,7.3576293
1582925946011,6.1642504,-1.968917,7.9133854
1582925946031,6.305585,-1.93538,6.5910697
1582925946052,6.0971766,-1.815605,7.882244
1582925946071,6.0061474,-1.8419555,7.5348964
1582925946091,6.2648616,-1.877888,7.5492697
1582925946111,6.200183,-1.8371645,7.3384657
1582925946131,6.296003,-1.8611195,7.4678226
1582925946150,6.2217426,-1.7940454,7.302533
1582925946172,6.262466,-1.7940454,7.5061507
1582925946191,6.1738324,-1.7940454,7.4007487
1582925946211,6.248093,-1.868306,7.475009
1582925946230,6.142691,-1.83956,7.4438677
1582925946251,6.2121606,-1.829978,7.451054
1582925946270,6.200183,-1.88747,7.460636
1582925946290,6.324749,-1.8659105,7.2378545
1582925946310,6.238511,-2.0000584,7.312115
1582925946330,6.588254,-2.275541,7.843916
1582925946350,5.8288803,-1.7844635,6.7875004
1582925946369,6.2600703,-2.0958786,7.733723
1582925946390,6.219347,-2.261168,7.254623
1582925946410,6.0492663,-2.146184,7.2618093
1582925946430,6.0923853,-2.179721,7.355234
1582925946450,5.112626,-1.6742705,8.193659
1582925946470,5.4120636,-1.3101546,8.521843
1582925946490,6.4996204,-2.457599,6.7347994
1582925946509,6.228929,-2.424062,7.4774046
1582925946529,6.2217426,-2.2971005,6.9120665
1582925946550,6.71282,-2.975027,6.8210373
1582925946569,6.1211314,-2.9199305,7.0174685
1582925946589,6.1738324,-2.6420524,7.1611986
1582925946609,6.1115494,-2.3210554,7.379189
1582925946630,6.032498,-2.3450105,7.446263
1582925946650,6.0923853,-2.347406,7.2138996
1582925946669,6.123527,-2.46239,7.3959575
1582925946689,6.219347,-2.481554,7.427099
1582925946709,5.975006,-2.1916986,7.1707807
1582925946729,6.382241,-2.610911,6.627002
1582925946750,5.9726105,-2.179721,8.303852
1582925946769,6.075617,-2.3114736,7.316906
1582925946789,6.2265334,-2.376152,7.053401
1582925946809,6.219347,-2.1916986,7.2857647
1582925946829,6.109154,-2.17493,7.451054
1582925946849,6.0780125,-2.265959,7.221086
1582925946869,6.1642504,-2.2875185,6.909671
1582925946889,6.104363,-2.2252355,7.6115527
1582925946909,5.94626,-1.959335,8.24636
1582925946929,5.9151187,-1.580846,8.023579
1582925946949,6.1259227,-2.0048494,7.230668
1582925946969,6.0588484,-2.203676,7.2378545
1582925946989,6.075617,-2.184512,7.6067615
1582925947008,6.1163406,-2.347406,7.1468253
1582925947028,6.1067586,-2.395316,7.297742
1582925947049,6.1163406,-2.380943,7.3336744
1582925947068,5.9342823,-2.361779,7.3336744
1582925947088,6.0348935,-2.3977115,7.2378545
1582925947108,6.0971766,-2.438435,7.3240924
1582925947128,6.1402955,-2.486345,7.393562
1582925947148,5.9582376,-2.452808,7.3863754
1582925947169,6.027707,-2.4072936,7.355234
1582925947188,6.027707,-2.328242,7.340861
1582925947208,6.0061474,-2.4456215,7.4007487
1582925947228,6.027707,-2.500718,7.3959575
1582925947248,6.099572,-2.4025025,7.331279
1582925947268,6.0157294,-2.3545926,7.3480477
1582925947289,5.94626,-2.4168756,7.4390764
1582925947308,6.022916,-2.443226,7.379189
1582925947329,6.094781,-2.471972,7.3480477
1582925947349,6.0540576,-2.46239,7.355234
1582925947369,5.9294915,-2.122229,7.6355076
1582925947389,6.037289,-2.6660075,7.211504
1582925947408,6.0492663,-2.486345,7.230668
1582925947428,6.0828037,-2.524673,7.4342856
1582925947449,6.0301027,-2.5893514,7.364816
1582925947469,6.046871,-2.529464,7.2905555
1582925947489,6.027707,-2.500718,7.3001375
1582925947508,6.056453,-2.2396085,7.4486585
1582925947528,6.166646,-2.8336926,7.1468253
1582925947549,5.8863726,-2.543837,7.355234
1582925947568,6.190601,-2.5462325,7.312115
1582925947589,6.0971766,-2.481554,7.2426453
1582925947608,6.066035,-2.591747,7.2474365
1582925947628,6.1211314,-2.539046,7.086938
1582925947649,6.142691,-2.4983225,7.245041
1582925947668,6.1067586,-2.4743676,7.2043176
1582925947688,6.228929,-2.41448,7.4821954
1582925947708,6.530762,-2.471972,7.1659894
1582925947728,6.315167,-2.5079045,6.986327
1582925947748,6.319958,-2.2012806,7.3049283
1582925947768,6.2361155,-2.3689654,7.360025
1582925947788,6.1546683,-2.615702,7.0557966
1582925947807,6.003752,-4.5392885,7.0078864
1582925947828,6.18581,-3.1834354,6.732404
1582925947847,6.406196,0.5727085,7.312115
1582925947868,6.109154,-0.9412475,8.083466
1582925947888,6.109154,-2.438435,7.345652
1582925947908,6.315167,-2.0383866,7.2474365
1582925947927,6.617,-1.7509265,7.1851535
1582925947947,6.118736,-1.782068,7.407935
1582925947968,6.305585,-2.2779365,7.211504
1582925947987,6.257675,-2.3066826,7.5875974
1582925948007,6.3846364,-2.495927,7.019864
1582925948027,6.3031893,-2.280332,7.3288836
1582925948048,6.52118,-1.825187,7.1180797
1582925948067,6.4038005,-2.0767145,7.19234
1582925948087,6.171437,-2.1916986,7.307324
1582925948106,6.1786237,-1.8132095,7.4199123
1582925948127,6.3271446,-1.954544,7.3815846
1582925948147,6.324749,-2.788178,7.0941243
1582925948166,6.2121606,-2.816924,6.895298
1582925948186,6.2744436,-2.745059,7.0797515
1582925948206,6.2696524,-2.7522454,7.0414233
1582925948227,6.1498775,-2.6420524,7.1755714
1582925948247,6.291212,-2.677985,7.0941243
1582925948266,6.3175626,-2.6276796,7.010282
1582925948285,6.2361155,-2.7378726,7.149221
1582925948305,6.224138,-2.6995444,7.09652
1582925948325,6.339122,-2.649239,7.039028
1582925948346,6.1834145,-2.634866,7.0557966
1582925948366,6.118736,-2.5318594,7.053401
1582925948385,6.602627,-2.4599946,6.646166
1582925948405,5.759411,-2.5126956,7.7600737
1582925948424,4.446677,-1.556891,8.893145
1582925948445,6.3846364,-3.6481626,6.9360213
1582925948465,8.586101,-2.7282906,5.3693643
1582925948485,6.099572,-3.042101,6.7827096
1582925948505,5.8719993,-2.94149,7.2282724
1582925948524,7.139219,-1.74374,6.4569216
1582925948545,7.04819,-1.786859,6.6868896
1582925948564,6.449315,-2.572583,7.130057
1582925948585,6.37745,-2.730686,7.14443
1582925948604,7.0266304,-1.916216,6.689285
1582925948624,7.148801,-1.576055,6.823433
1582925948645,7.2757626,-2.088692,7.1803627
1582925948664,6.6337686,-2.361779,6.526391
1582925948685,6.990698,-2.1246245,6.636584
1582925948704,6.6241865,-1.7078075,6.7539635
1582925948725,6.4469194,-1.930589,6.9983044
1582925948744,6.9308105,-2.2683544,6.7875004
1582925948764,6.66491,-1.7509265,6.804269
1582925948784,6.8301997,-2.0096405,7.0701694
1582925948805,6.5906496,-1.60001,7.412726
1582925948824,6.3558903,-1.058627,6.818642
1582925948844,6.8206177,-1.4490935,6.8689475
1582925948864,6.8397813,-1.7557175,7.4199123
1582925948883,6.6146045,-1.5305405,7.082147
1582925948904,6.688865,-1.4826305,7.0653787
1582925948924,6.799058,-1.494608,7.077356
1582925948944,6.8110356,-1.595219,6.976745
1582925948964,6.7391706,-1.7365535,7.2091084
1582925948984,6.803849,-0.972389,6.703658
1582925949004,7.009862,-1.302968,6.895298
1582925949023,8.159702,-2.2971005,5.7574353
1582925949043,6.573881,-2.4791584,6.607838
1582925949063,4.7029953,-1.9042385,8.876376
1582925949083,5.701919,-1.3197365,8.148145
1582925949103,6.794267,-1.777277,6.8306193
1582925949123,6.837386,-1.8515375,6.66533
1582925949143,6.525971,-1.9425665,6.7539635
1582925949163,7.043399,-2.706731,6.986327
1582925949183,7.0410037,-2.6228886,6.660539
1582925949203,6.066035,-0.752003,7.666649
1582925949224,5.721083,-0.9652025,8.081071
1582925949244,6.617,-2.098274,6.9887223
1582925949263,6.7247977,-1.734158,7.139639
1582925949283,6.7391706,-1.6407335,7.0510054
1582925949304,6.645746,-1.925798,7.259414
1582925949323,6.4612923,-1.9281934,6.9839315
1582925949343,6.6385593,-1.734158,7.0318413
1582925949363,6.612209,-1.820396,7.062983
1582925949383,6.4804564,-1.949753,7.077356
1582925949404,6.4085913,-1.8707016,7.24025
1582925949423,6.727193,-1.7700905,6.914462
1582925949443,6.708029,-1.8467464,7.015073
1582925949463,6.8349905,-1.815605,6.8593655
1582925949483,6.6289773,-1.8419555,7.187549
1582925949503,6.7679167,-1.7844635,7.1037064
1582925949523,6.6385593,-1.729367,6.9599767
1582925949543,6.123527,-1.9042385,7.3336744
1582925949562,6.573881,-1.901843,7.115684
1582925949583,6.9116464,-1.88747,6.971954
1582925949603,6.4852476,-1.93538,6.9887223
1582925949623,6.3271446,-1.921007,7.1228704
1582925949643,6.56909,-1.8754925,7.0845423
1582925949663,6.655328,-1.997663,7.0845423
1582925949683,6.95237,-2.040782,6.7252173
1582925949702,7.81475,-2.352197,5.908352
1582925949723,6.075617,-1.7317625,7.3432565
1582925949742,5.8336716,-1.50419,7.8990126
1582925949762,6.2217426,-1.9042385,7.4869866
1582925949782,6.8493633,-2.0144315,6.6293974
1582925949802,7.0505853,-1.9569395,6.4665036
