Time,accX,accY,accZ
1583283438487,-5.770585,-6.3663697,3.661213
1583283438538,-5.813314,-7.3318553,3.3209674
1583283438588,-5.6128373,-7.6425505,2.8017774
1583283438637,-5.6111717,-7.479214,1.8649262
1583283438688,-5.8478665,-7.7758093,1.1912181
1583283438737,-5.710743,-8.049566,0.4678677
1583283438788,-5.7993727,-7.3496213,-0.5209915
1583283438838,-5.764329,-7.436556,-0.65722
1583283438887,-5.8208413,-6.7458344,-0.432827
1583283438938,-5.666165,-7.22887,-1.1438618
1583283438987,-5.68263,-7.5267186,-1.9931111
1583283439037,-5.671589,-7.5274014,-2.336083
1583283439087,-5.660098,-7.3557987,-3.229795
1583283439137,-5.47242,-7.2871466,-3.645533
1583283439187,-5.427893,-6.6777005,-3.876154
1583283439238,-5.317276,-6.963146,-3.8181708
1583283439288,-5.4961123,-6.622049,-3.9538054
1583283439337,-5.479901,-6.2446313,-4.513725
1583283439387,-5.486833,-6.2444487,-4.8207073
1583283439438,-5.630855,-5.6717277,-5.5409346
1583283439487,-5.3635545,-5.679503,-5.161925
1583283439538,-5.218459,-6.0978355,-4.578513
1583283439587,-5.4225845,-6.0828705,-4.4511266
1583283439638,-5.183226,-6.2982273,-5.4952197
1583283439688,-5.265608,-7.04588,-6.4406977
1583283439737,-5.387406,-7.0808854,-4.5440607
1583283439787,-5.528141,-7.2824206,-4.137979
1583283439837,-6.024416,-6.560477,-3.262401
1583283439887,-6.8488607,-5.174487,-0.87890947
1583283439937,-7.4926505,-4.3022475,0.33636793
1583283439987,-7.704881,-5.2615433,1.2995315
1583283440038,-7.3335524,-5.8603206,1.4140383
1583283440087,-7.603475,-5.6601715,2.1621776
1583283440137,-7.227025,-5.6433363,2.625543
1583283440187,-7.3123345,-5.4420147,3.123744
1583283440238,-7.2642293,-5.3231907,3.2073631
1583283440287,-7.239142,-5.4238777,3.235711
1583283440337,-7.319746,-5.0122385,3.2524104
1583283440387,-7.4372077,-5.6847363,3.2780237
1583283440437,-7.2954516,-5.2106953,3.7202106
1583283440488,-7.2247753,-5.045381,3.7965117
1583283440538,-7.162493,-5.0862155,3.805449
1583283440588,-7.127599,-5.8679767,3.7774625
1583283440638,-7.0848885,-5.433206,3.7058141
1583283440687,-7.0886083,-5.1620016,3.7278051
1583283440737,-7.1986446,-5.1245556,3.672242
1583283440787,-7.0596585,-5.574293,3.6667428
1583283440838,-6.9751554,-5.6435194,3.8851042
1583283440888,-6.9680157,-5.372331,4.1686425
1583283440938,-6.83754,-5.408938,4.472171
1583283440987,-6.929032,-5.284222,4.439664
1583283441038,-6.9959855,-4.6913266,4.5917892
1583283441087,-6.797689,-4.6472855,4.823213
1583283441137,-6.854904,-4.3329434,4.937136
1583283441188,-6.8288636,-4.64722,4.965386
1583283441238,-6.7831874,-4.697936,5.3112473
1583283441287,-6.9418354,-4.5849557,4.862626
1583283441338,-6.9896965,-4.406573,4.884974
1583283441387,-6.963867,-4.7038746,4.6211324
1583283441437,-6.8928113,-4.7031946,5.1371603
1583283441487,-6.9770474,-4.613289,5.0513444
1583283441537,-6.993096,-4.4954023,5.2732244
1583283441588,-6.943127,-4.227313,5.1774025
1583283441638,-6.859464,-4.336427,5.307391
1583283441687,-6.9028144,-4.039246,4.844226
1583283441738,-6.864965,-4.784024,4.241532
1583283441788,-7.02319,-4.868674,4.369423
1583283441837,-7.0089364,-5.963057,3.8262842
1583283441887,-6.8649483,-6.3741155,3.9437473
1583283441938,-7.036118,-6.0995855,3.5617564
1583283441988,-6.885649,-5.471337,3.8602037
1583283442037,-7.003995,-5.0243087,4.415111
1583283442087,-7.0071373,-4.4363747,4.7736306
1583283442137,-7.0269465,-4.1383767,5.3752885
1583283442187,-6.9421678,-4.0907354,5.3152113
1583283442237,-6.9617114,-4.055066,5.1151285
1583283442287,-7.0502005,-4.613381,4.859831
1583283442337,-6.89804,-5.873434,3.668428
1583283442387,-6.8832355,-5.659848,2.375258
1583283442438,-6.728031,-5.988291,1.9446628
1583283442487,-6.427591,-6.8402452,1.3990017
1583283442537,-6.1427636,-7.607614,0.30656493
1583283442588,-5.892632,-7.8598313,-0.34509772
1583283442637,-5.6875024,-7.8923264,-0.69690245
1583283442687,-5.545694,-7.8218155,-1.1583948
1583283442737,-5.414662,-7.719137,-1.4558537
1583283442788,-5.3599443,-7.7546606,-1.7168162
1583283442838,-5.3297215,-7.529642,-1.6159061
1583283442887,-5.2700443,-7.7731247,-1.5768948
1583283442937,-5.237957,-7.914709,-1.8395854
1583283442988,-5.1501174,-8.243462,-2.3400195
1583283443038,-5.2004843,-7.856052,-2.8303483
1583283443088,-5.4281535,-7.1224847,-2.4308276
1583283443137,-5.5311494,-7.2773275,-2.233536
1583283443187,-5.646275,-7.247717,-2.3663752
1583283443237,-5.849796,-6.7224693,-2.255079
1583283443288,-5.9787583,-6.549348,-2.0915737
1583283443337,-5.871532,-7.101963,-2.1155963
1583283443388,-5.846728,-7.1364427,-1.7326019
1583283443437,-5.8273335,-7.2450814,-1.2204849
1583283443487,-5.7303715,-7.44926,-1.4685493
1583283443537,-5.6357217,-7.355875,-1.7450676
1583283443588,-5.6315727,-7.228611,-2.0819833
1583283443638,-5.5398316,-7.263221,-2.2916982
1583283443688,-5.456514,-7.479241,-2.638483
1583283443737,-5.4314694,-7.471893,-3.0700798
1583283443787,-5.445267,-7.43304,-3.1867843
1583283443837,-5.3590145,-7.2743955,-3.4592345
1583283443887,-5.347898,-6.849679,-3.7691603
1583283443938,-5.37567,-6.602039,-3.8009002
1583283443987,-5.5205784,-6.459976,-3.576063
1583283444038,-5.533609,-6.7950373,-3.6025217
1583283444088,-5.473086,-6.725142,-4.0241632
1583283444138,-5.5916452,-6.711772,-4.5907316
1583283444187,-5.753055,-6.4475513,-4.760913
1583283444238,-5.855263,-5.9950147,-4.9662967
1583283444287,-6.131025,-5.4295897,-5.0086784
1583283444338,-6.4147987,-4.8844266,-4.76954
1583283444388,-6.6160073,-4.5129395,-4.7143583
1583283444437,-6.7417326,-4.309595,-4.663369
1583283444487,-6.788362,-4.3147244,-4.5733304
1583283444538,-6.8139534,-4.3192306,-4.4902086
1583283444588,-6.8761916,-4.399898,-4.805244
1583283444638,-6.7615266,-4.745458,-4.445752
1583283444687,-6.672148,-4.972585,-4.181445
1583283444738,-6.7091665,-4.685074,-5.0855007
1583283444788,-6.7214017,-4.3053684,-5.41259
1583283444837,-6.6848617,-4.197307,-4.9676204
1583283444888,-6.5145054,-4.5902767,-4.8348236
1583283444937,-6.3741035,-5.2930655,-6.077134
1583283444987,-6.186894,-5.6129174,-6.970605
1583283445038,-6.577531,-5.3995924,-4.878395
1583283445087,-7.0590568,-5.2647395,-2.205451
1583283445137,-7.35465,-5.1624074,-0.9686882
1583283445188,-7.3892517,-5.2815776,-0.84998536
1583283445237,-7.4633446,-5.590868,0.18798432
1583283445288,-7.379069,-6.2957606,0.75651884
1583283445337,-7.479353,-6.187736,0.31860605
1583283445387,-7.2810307,-6.236232,0.8603262
1583283445437,-7.3076963,-6.0117087,1.4561532
1583283445488,-7.2375555,-5.878481,1.4688307
1583283445537,-7.223369,-6.095878,1.3454726
1583283445588,-7.167598,-6.186402,1.775758
1583283445637,-7.171427,-6.175699,1.6992098
1583283445687,-7.048062,-6.393632,1.6414994
1583283445737,-7.218834,-6.122714,1.6438341
1583283445788,-7.0518355,-6.1601458,1.7356972
1583283445838,-7.1007714,-6.299828,1.7957298
1583283445887,-7.068318,-6.448264,1.816838
1583283445937,-7.135524,-6.257017,1.7816331
1583283445988,-7.087661,-6.0500984,1.847191
1583283446038,-7.081621,-6.2173815,1.7734551
1583283446088,-7.0052805,-6.293722,2.0351667
1583283446137,-7.0622935,-6.229495,2.1330042
1583283446188,-6.9967904,-6.107387,2.0395565
1583283446238,-6.9869943,-6.1922836,2.1284723
1583283446287,-6.944809,-6.310952,2.241602
1583283446337,-6.89905,-6.286601,2.2368891
1583283446387,-7.0039606,-6.2532196,2.0998843
1583283446437,-6.997681,-6.1887784,2.110178
1583283446488,-7.0212574,-6.1339917,2.0420864
1583283446538,-6.996077,-6.3212767,2.0171573
1583283446587,-6.962165,-6.3051925,2.170353
1583283446638,-6.9241567,-6.3029914,2.229825
1583283446688,-6.8483734,-6.302031,2.1514635
1583283446738,-6.933253,-6.3210096,2.2985473
1583283446788,-6.9159346,-6.334156,2.2260132
1583283446838,-6.963055,-6.242719,2.0960405
1583283446888,-6.935449,-6.216395,2.108841
1583283446938,-6.950629,-6.176094,2.1878784
1583283446988,-6.9276557,-6.265045,2.1633098
1583283447038,-6.946964,-6.341242,2.2418463
1583283447087,-6.890215,-6.339002,2.2489104
1583283447137,-6.967862,-6.218608,2.1470482
1583283447187,-6.934434,-6.2125225,2.1754851
1583283447238,-6.9510407,-6.264177,2.1690905
1583283447287,-6.9656444,-6.298863,2.1704674
1583283447338,-6.937697,-6.266504,2.2216177
1583283447387,-6.942206,-6.2298245,2.228502
1583283447437,-6.930429,-6.2142696,2.1847522
1583283447487,-6.934191,-6.294195,2.2123592
1583283447538,-6.8961353,-6.3241515,2.2780437
1583283447587,-6.887496,-6.33062,2.2613194
1583283447638,-6.8804793,-6.313628,2.2669733
1583283447687,-6.8746095,-6.314354,2.3253317
1583283447737,-6.904193,-6.2285495,2.2902174
1583283447787,-6.867211,-6.281022,2.3254154
1583283447838,-6.832477,-6.3377166,2.393013
1583283447887,-6.7577744,-6.2972856,2.3919575
1583283447938,-6.9031553,-6.3188696,2.4186153
1583283447987,-6.913344,-6.367855,2.4474745
1583283448038,-6.9138126,-6.3111267,2.4676616
1583283448088,-6.8843007,-6.129971,2.2539403
1583283448138,-6.9476323,-6.030045,2.3349843
1583283448188,-6.9462276,-6.156091,2.3333685
1583283448238,-6.93465,-6.3029585,2.2583756
1583283448287,-6.93665,-6.357294,2.2385354
1583283448338,-6.8301644,-6.348248,2.4225767
1583283448388,-6.827106,-6.2344484,2.3894644
1583283448437,-6.9082766,-6.117522,2.3493092
Time,accX,accY,accZ
1583283438487,-5.770585,-6.3663697,3.661213
1583283438538,-5.813314,-7.3318553,3.3209674
1583283438588,-5.6128373,-7.6425505,2.8017774
1583283438637,-5.6111717,-7.479214,1.8649262
1583283438688,-5.8478665,-7.7758093,1.1912181
1583283438737,-5.710743,-8.049566,0.4678677
1583283438788,-5.7993727,-7.3496213,-0.5209915
1583283438838,-5.764329,-7.436556,-0.65722
1583283438887,-5.8208413,-6.7458344,-0.432827
1583283438938,-5.666165,-7.22887,-1.1438618
1583283438987,-5.68263,-7.5267186,-1.9931111
1583283439037,-5.671589,-7.5274014,-2.336083
1583283439087,-5.660098,-7.3557987,-3.229795
1583283439137,-5.47242,-7.2871466,-3.645533
1583283439187,-5.427893,-6.6777005,-3.876154
1583283439238,-5.317276,-6.963146,-3.8181708
1583283439288,-5.4961123,-6.622049,-3.9538054
1583283439337,-5.479901,-6.2446313,-4.513725
1583283439387,-5.486833,-6.2444487,-4.8207073
1583283439438,-5.630855,-5.6717277,-5.5409346
1583283439487,-5.3635545,-5.679503,-5.161925
1583283439538,-5.218459,-6.0978355,-4.578513
1583283439587,-5.4225845,-6.0828705,-4.4511266
1583283439638,-5.183226,-6.2982273,-5.4952197
1583283439688,-5.265608,-7.04588,-6.4406977
1583283439737,-5.387406,-7.0808854,-4.5440607
1583283439787,-5.528141,-7.2824206,-4.137979
1583283439837,-6.024416,-6.560477,-3.262401
1583283439887,-6.8488607,-5.174487,-0.87890947
1583283439937,-7.4926505,-4.3022475,0.33636793
1583283439987,-7.704881,-5.2615433,1.2995315
1583283440038,-7.3335524,-5.8603206,1.4140383
1583283440087,-7.603475,-5.6601715,2.1621776
1583283440137,-7.227025,-5.6433363,2.625543
1583283440187,-7.3123345,-5.4420147,3.123744
1583283440238,-7.2642293,-5.3231907,3.2073631
1583283440287,-7.239142,-5.4238777,3.235711
1583283440337,-7.319746,-5.0122385,3.2524104
1583283440387,-7.4372077,-5.6847363,3.2780237
1583283440437,-7.2954516,-5.2106953,3.7202106
1583283440488,-7.2247753,-5.045381,3.7965117
1583283440538,-7.162493,-5.0862155,3.805449
1583283440588,-7.127599,-5.8679767,3.7774625
1583283440638,-7.0848885,-5.433206,3.7058141
1583283440687,-7.0886083,-5.1620016,3.7278051
1583283440737,-7.1986446,-5.1245556,3.672242
1583283440787,-7.0596585,-5.574293,3.6667428
1583283440838,-6.9751554,-5.6435194,3.8851042
1583283440888,-6.9680157,-5.372331,4.1686425
1583283440938,-6.83754,-5.408938,4.472171
1583283440987,-6.929032,-5.284222,4.439664
1583283441038,-6.9959855,-4.6913266,4.5917892
1583283441087,-6.797689,-4.6472855,4.823213
1583283441137,-6.854904,-4.3329434,4.937136
1583283441188,-6.8288636,-4.64722,4.965386
1583283441238,-6.7831874,-4.697936,5.3112473
1583283441287,-6.9418354,-4.5849557,4.862626
1583283441338,-6.9896965,-4.406573,4.884974
1583283441387,-6.963867,-4.7038746,4.6211324
1583283441437,-6.8928113,-4.7031946,5.1371603
1583283441487,-6.9770474,-4.613289,5.0513444
1583283441537,-6.993096,-4.4954023,5.2732244
1583283441588,-6.943127,-4.227313,5.1774025
1583283441638,-6.859464,-4.336427,5.307391
1583283441687,-6.9028144,-4.039246,4.844226
1583283441738,-6.864965,-4.784024,4.241532
1583283441788,-7.02319,-4.868674,4.369423
1583283441837,-7.0089364,-5.963057,3.8262842
1583283441887,-6.8649483,-6.3741155,3.9437473
1583283441938,-7.036118,-6.0995855,3.5617564
1583283441988,-6.885649,-5.471337,3.8602037
1583283442037,-7.003995,-5.0243087,4.415111
1583283442087,-7.0071373,-4.4363747,4.7736306
1583283442137,-7.0269465,-4.1383767,5.3752885
1583283442187,-6.9421678,-4.0907354,5.3152113
1583283442237,-6.9617114,-4.055066,5.1151285
1583283442287,-7.0502005,-4.613381,4.859831
1583283442337,-6.89804,-5.873434,3.668428
1583283442387,-6.8832355,-5.659848,2.375258
1583283442438,-6.728031,-5.988291,1.9446628
1583283442487,-6.427591,-6.8402452,1.3990017
1583283442537,-6.1427636,-7.607614,0.30656493
1583283442588,-5.892632,-7.8598313,-0.34509772
1583283442637,-5.6875024,-7.8923264,-0.69690245
1583283442687,-5.545694,-7.8218155,-1.1583948
1583283442737,-5.414662,-7.719137,-1.4558537
1583283442788,-5.3599443,-7.7546606,-1.7168162
1583283442838,-5.3297215,-7.529642,-1.6159061
1583283442887,-5.2700443,-7.7731247,-1.5768948
1583283442937,-5.237957,-7.914709,-1.8395854
1583283442988,-5.1501174,-8.243462,-2.3400195
1583283443038,-5.2004843,-7.856052,-2.8303483
1583283443088,-5.4281535,-7.1224847,-2.4308276
1583283443137,-5.5311494,-7.2773275,-2.233536
1583283443187,-5.646275,-7.247717,-2.3663752
1583283443237,-5.849796,-6.7224693,-2.255079
1583283443288,-5.9787583,-6.549348,-2.0915737
1583283443337,-5.871532,-7.101963,-2.1155963
1583283443388,-5.846728,-7.1364427,-1.7326019
1583283443437,-5.8273335,-7.2450814,-1.2204849
1583283443487,-5.7303715,-7.44926,-1.4685493
1583283443537,-5.6357217,-7.355875,-1.7450676
1583283443588,-5.6315727,-7.228611,-2.0819833
1583283443638,-5.5398316,-7.263221,-2.2916982
1583283443688,-5.456514,-7.479241,-2.638483
1583283443737,-5.4314694,-7.471893,-3.0700798
1583283443787,-5.445267,-7.43304,-3.1867843
1583283443837,-5.3590145,-7.2743955,-3.4592345
1583283443887,-5.347898,-6.849679,-3.7691603
1583283443938,-5.37567,-6.602039,-3.8009002
1583283443987,-5.5205784,-6.459976,-3.576063
1583283444038,-5.533609,-6.7950373,-3.6025217
1583283444088,-5.473086,-6.725142,-4.0241632
1583283444138,-5.5916452,-6.711772,-4.5907316
1583283444187,-5.753055,-6.4475513,-4.760913
1583283444238,-5.855263,-5.9950147,-4.9662967
1583283444287,-6.131025,-5.4295897,-5.0086784
1583283444338,-6.4147987,-4.8844266,-4.76954
1583283444388,-6.6160073,-4.5129395,-4.7143583
1583283444437,-6.7417326,-4.309595,-4.663369
1583283444487,-6.788362,-4.3147244,-4.5733304
1583283444538,-6.8139534,-4.3192306,-4.4902086
1583283444588,-6.8761916,-4.399898,-4.805244
1583283444638,-6.7615266,-4.745458,-4.445752
1583283444687,-6.672148,-4.972585,-4.181445
1583283444738,-6.7091665,-4.685074,-5.0855007
1583283444788,-6.7214017,-4.3053684,-5.41259
1583283444837,-6.6848617,-4.197307,-4.9676204
1583283444888,-6.5145054,-4.5902767,-4.8348236
1583283444937,-6.3741035,-5.2930655,-6.077134
1583283444987,-6.186894,-5.6129174,-6.970605
1583283445038,-6.577531,-5.3995924,-4.878395
1583283445087,-7.0590568,-5.2647395,-2.205451
1583283445137,-7.35465,-5.1624074,-0.9686882
1583283445188,-7.3892517,-5.2815776,-0.84998536
1583283445237,-7.4633446,-5.590868,0.18798432
1583283445288,-7.379069,-6.2957606,0.75651884
1583283445337,-7.479353,-6.187736,0.31860605
1583283445387,-7.2810307,-6.236232,0.8603262
1583283445437,-7.3076963,-6.0117087,1.4561532
1583283445488,-7.2375555,-5.878481,1.4688307
1583283445537,-7.223369,-6.095878,1.3454726
1583283445588,-7.167598,-6.186402,1.775758
1583283445637,-7.171427,-6.175699,1.6992098
1583283445687,-7.048062,-6.393632,1.6414994
1583283445737,-7.218834,-6.122714,1.6438341
1583283445788,-7.0518355,-6.1601458,1.7356972
1583283445838,-7.1007714,-6.299828,1.7957298
1583283445887,-7.068318,-6.448264,1.816838
1583283445937,-7.135524,-6.257017,1.7816331
1583283445988,-7.087661,-6.0500984,1.847191
1583283446038,-7.081621,-6.2173815,1.7734551
1583283446088,-7.0052805,-6.293722,2.0351667
1583283446137,-7.0622935,-6.229495,2.1330042
1583283446188,-6.9967904,-6.107387,2.0395565
1583283446238,-6.9869943,-6.1922836,2.1284723
1583283446287,-6.944809,-6.310952,2.241602
1583283446337,-6.89905,-6.286601,2.2368891
1583283446387,-7.0039606,-6.2532196,2.0998843
1583283446437,-6.997681,-6.1887784,2.110178
1583283446488,-7.0212574,-6.1339917,2.0420864
1583283446538,-6.996077,-6.3212767,2.0171573
1583283446587,-6.962165,-6.3051925,2.170353
1583283446638,-6.9241567,-6.3029914,2.229825
1583283446688,-6.8483734,-6.302031,2.1514635
1583283446738,-6.933253,-6.3210096,2.2985473
1583283446788,-6.9159346,-6.334156,2.2260132
1583283446838,-6.963055,-6.242719,2.0960405
1583283446888,-6.935449,-6.216395,2.108841
1583283446938,-6.950629,-6.176094,2.1878784
1583283446988,-6.9276557,-6.265045,2.1633098
1583283447038,-6.946964,-6.341242,2.2418463
1583283447087,-6.890215,-6.339002,2.2489104
1583283447137,-6.967862,-6.218608,2.1470482
1583283447187,-6.934434,-6.2125225,2.1754851
1583283447238,-6.9510407,-6.264177,2.1690905
1583283447287,-6.9656444,-6.298863,2.1704674
1583283447338,-6.937697,-6.266504,2.2216177
1583283447387,-6.942206,-6.2298245,2.228502
1583283447437,-6.930429,-6.2142696,2.1847522
1583283447487,-6.934191,-6.294195,2.2123592
1583283447538,-6.8961353,-6.3241515,2.2780437
1583283447587,-6.887496,-6.33062,2.2613194
1583283447638,-6.8804793,-6.313628,2.2669733
1583283447687,-6.8746095,-6.314354,2.3253317
1583283447737,-6.904193,-6.2285495,2.2902174
1583283447787,-6.867211,-6.281022,2.3254154
1583283447838,-6.832477,-6.3377166,2.393013
1583283447887,-6.7577744,-6.2972856,2.3919575
1583283447938,-6.9031553,-6.3188696,2.4186153
1583283447987,-6.913344,-6.367855,2.4474745
1583283448038,-6.9138126,-6.3111267,2.4676616
1583283448088,-6.8843007,-6.129971,2.2539403
1583283448138,-6.9476323,-6.030045,2.3349843
1583283448188,-6.9462276,-6.156091,2.3333685
1583283448238,-6.93465,-6.3029585,2.2583756
1583283448287,-6.93665,-6.357294,2.2385354
1583283448338,-6.8301644,-6.348248,2.4225767
1583283448388,-6.827106,-6.2344484,2.3894644
1583283448437,-6.9082766,-6.117522,2.3493092
