Time,proximity,ambient,leanForward,qW,qX,qY,qZ,aX,aY,aZ,power,cal,DT,Hour
1583279281940.0,0.0,0.0,115.29111766815186,0.03189697489142418,0.04774169623851776,0.8433959931135178,-0.5341918915510178,0.04296875,-0.10234379768371582,-0.06796836853027344,0.01845395565032959,3.0,2020-03-03 17:48:01.940000-06:00,2020-03-03 17:00
1583279281990.0,0.0,0.0,115.08802795410156,0.03333739936351776,0.04786376655101776,0.8424560576677322,-0.5356323271989822,-0.00390625,-0.05390632152557373,0.0078125,0.005572497844696045,3.0,2020-03-03 17:48:01.990000-06:00,2020-03-03 17:00
1583279282040.0,0.0,0.0,114.60684776306152,0.037194833159446716,0.05078125,0.8399902433156967,-0.53887939453125,-0.04765653610229492,-0.03671872615814209,0.05078125,0.0125579833984375,3.0,2020-03-03 17:48:02.040000-06:00,2020-03-03 17:00
1583279282090.0,0.0,0.0,114.14739227294922,0.04056397080421448,0.054235830903053284,0.8375976532697678,-0.5420165956020355,-0.010155677795410156,-0.0015621185302734375,-0.03359222412109375,0.02637338638305664,3.0,2020-03-03 17:48:02.090000-06:00,2020-03-03 17:00
1583279282140.0,0.0,0.0,113.36508178710938,0.047228991985321045,0.06170654296875,0.8332886099815369,-0.547192394733429,-0.11874961853027344,0.09843826293945312,0.16171932220458984,0.07755422592163086,3.0,2020-03-03 17:48:02.140000-06:00,2020-03-03 17:00
1583279282190.0,0.0,0.0,111.42213439941406,0.06525886058807373,0.08554697036743164,0.8216308355331421,-0.5594848990440369,0.1437511444091797,-0.18046855926513672,-0.007030487060546875,0.101898193359375,3.0,2020-03-03 17:48:02.190000-06:00,2020-03-03 17:00
1583279282240.0,0.0,0.0,109.09091186523438,0.09099125862121582,0.11497795581817627,0.80633544921875,-0.572705090045929,0.5257812738418579,-0.10702896118164062,-0.20937496423721313,0.40923452377319336,3.0,2020-03-03 17:48:02.240000-06:00,2020-03-03 17:00
1583279282290.0,0.0,0.0,106.53404235839844,0.12697768211364746,0.13875722885131836,0.7891845703125,-0.58428955078125,0.5874996185302734,0.48281192779541016,-0.41015625,0.925506591796875,3.0,2020-03-03 17:48:02.290000-06:00,2020-03-03 17:00
1583279282340.0,0.0,0.0,104.23884296417236,0.16181635856628418,0.17486572265625,0.7693237066268921,-0.592211902141571,0.7953109741210938,0.4968757629394531,-0.7437515258789062,2.3011474609375,3.0,2020-03-03 17:48:02.340000-06:00,2020-03-03 17:00
1583279282390.0,0.0,0.0,104.19242477416992,0.18516850471496582,0.23109126091003418,0.7540527582168579,-0.5857177972793579,0.18281173706054688,-0.009374618530273438,1.1632804870605469,1.5624237060546875,3.0,2020-03-03 17:48:02.390000-06:00,2020-03-03 17:00
1583279282440.0,0.0,0.0,104.160888671875,0.20686030387878418,0.2831054925918579,0.7361938953399658,-0.5785278379917145,-0.038280487060546875,0.271881103515625,1.42889404296875,3.6748714447021484,3.0,2020-03-03 17:48:02.440000-06:00,2020-03-03 17:00
1583279282490.0,0.0,0.0,101.54623413085938,0.26650333404541016,0.27767324447631836,0.72137451171875,-0.5699341297149658,0.8578109741210938,1.6734352111816406,-0.43984413146972656,3.8354530334472656,3.0,2020-03-03 17:48:02.490000-06:00,2020-03-03 17:00
1583279282540.0,0.0,0.0,99.01034545898438,0.39365649223327637,0.1788533478975296,0.73907470703125,-0.51593017578125,1.110025405883789,1.2955741882324219,-0.5319023132324219,3.4523353576660156,3.0,2020-03-03 17:48:02.540000-06:00,2020-03-03 17:00
1583279282590.0,0.0,0.0,96.30685424804688,0.4429931640625,0.18109130859375,0.72259521484375,-0.49884033203125,0.76171875,1.875,0.3828125,4.2423858642578125,3.0,2020-03-03 17:48:02.590000-06:00,2020-03-03 17:00
1583279282640.0,0.0,0.0,88.50485229492188,0.5365357398986816,0.20876479148864746,0.6652710437774658,-0.47336435317993164,1.4562501907348633,1.3460941314697266,-0.6273422241210938,4.735455513000488,3.0,2020-03-03 17:48:02.640000-06:00,2020-03-03 17:00
1583279282690.0,0.0,0.0,83.58305358886719,0.6055421829223633,0.25875234603881836,0.61334228515625,-0.4340331554412842,1.1703147888183594,1.4601554870605469,0.8265647888183594,4.500539779663086,3.0,2020-03-03 17:48:02.690000-06:00,2020-03-03 17:00
1583279282740.0,0.0,0.0,81.59796905517578,0.6512552499771118,0.31763720512390137,0.5705363750457764,-0.38521313667297363,0.916015625,0.9602870941162109,1.5279960632324219,4.4236297607421875,3.0,2020-03-03 17:48:02.740000-06:00,2020-03-03 17:00
1583279282790.0,0.0,0.0,79.97563934326172,0.68426513671875,0.3564453125,0.53472900390625,-0.3447265625,1.86328125,1.3671875,0.76953125,5.933197021484375,3.0,2020-03-03 17:48:02.790000-06:00,2020-03-03 17:00
1583279282840.0,0.0,0.0,76.63764190673828,0.7228149175643921,0.3879760503768921,0.48336172103881836,-0.3046996593475342,2.893749237060547,3.1234378814697266,-0.6031227111816406,18.724891662597656,3.0,2020-03-03 17:48:02.840000-06:00,2020-03-03 17:00
1583279282890.0,0.0,0.0,75.05375671386719,0.744384765625,0.4105590581893921,0.44978034496307373,-0.2731689214706421,3.1875,2.799999952316284,0.2515624761581421,18.063928604125977,3.0,2020-03-03 17:48:02.890000-06:00,2020-03-03 17:00
1583279282940.0,0.0,0.0,74.0182318687439,0.760083019733429,0.4269164800643921,0.42426759004592896,-0.24468994140625,3.15390682220459,2.8804683685302734,0.26249992847442627,18.323126316070557,3.0,2020-03-03 17:48:02.940000-06:00,2020-03-03 17:00
1583279282990.0,0.0,0.0,74.0324764251709,0.765380859375,0.4408813714981079,0.4098876714706421,-0.22735595703125,3.1179676055908203,3.3335952758789062,0.4539070129394531,21.57373046875,3.0,2020-03-03 17:48:02.990000-06:00,2020-03-03 17:00
1583279283040.0,0.0,0.0,74.75011444091797,0.7649658024311066,0.45684814453125,0.39958494901657104,-0.21518558263778687,3.514062464237213,4.369533538818359,1.0437488555908203,32.714508056640625,3.0,2020-03-03 17:48:03.040000-06:00,2020-03-03 17:00
1583279283090.0,0.0,0.0,76.61572265625,0.7587524652481079,0.4845092296600342,0.3862183094024658,-0.19959712028503418,3.4078102111816406,3.53515625,0.7945289611816406,24.9144287109375,3.0,2020-03-03 17:48:03.090000-06:00,2020-03-03 17:00
1583279283140.0,0.0,0.0,80.50466918945312,0.7446044683456421,0.5338256359100342,0.36281728744506836,-0.16597890853881836,3.1304702758789062,3.0617218017578125,1.1453094482421875,21.00700092315674,3.0,2020-03-03 17:48:03.140000-06:00,2020-03-03 17:00
1583279283190.0,0.0,0.0,85.44390869140625,0.7256591320037842,0.5894531011581421,0.33564460277557373,-0.09604454040527344,3.59765625,2.24609375,0.1796875,18.4727783203125,3.0,2020-03-03 17:48:03.190000-06:00,2020-03-03 17:00
1583279283240.0,0.0,0.0,89.38773727416992,0.7100830078125,0.602648913860321,0.36243903636932373,0.03225088119506836,2.865631103515625,1.7390594482421875,0.2414093017578125,12.34063720703125,3.0,2020-03-03 17:48:03.240000-06:00,2020-03-03 17:00
1583279283290.0,0.0,0.0,88.9117317199707,0.7123779356479645,0.5845092535018921,0.3853881359100342,0.04111337661743164,4.735160827636719,2.703125,-1.0843753814697266,31.874755859375,3.0,2020-03-03 17:48:03.290000-06:00,2020-03-03 17:00
1583279283340.0,0.0,0.0,88.23656368255615,0.7178588882088661,0.5593017637729645,0.41441649198532104,0.003369152545928955,6.214061737060547,3.5882816314697266,-1.2429656982421875,53.31231689453125,3.0,2020-03-03 17:48:03.340000-06:00,2020-03-03 17:00
1583279283390.0,0.0,0.0,88.12005233764648,0.7185790985822678,0.55303955078125,0.42158202826976776,-0.0053466856479644775,4.857818603515625,2.9679641723632812,-0.6507816314697266,34.2120361328125,3.0,2020-03-03 17:48:03.390000-06:00,2020-03-03 17:00
1583279283440.0,0.0,0.0,88.22032690048218,0.7180053703486919,0.55426025390625,0.42103269696235657,-0.0007812529802322388,2.9898414611816406,2.03515625,-0.38515639305114746,13.522705078125,3.0,2020-03-03 17:48:03.440000-06:00,2020-03-03 17:00
1583279283490.0,0.0,0.0,88.41023254394531,0.7168334871530533,0.5517089813947678,0.42630618810653687,-0.003979474306106567,3.6851563453674316,2.8882811069488525,-0.328125,22.03327178955078,3.0,2020-03-03 17:48:03.490000-06:00,2020-03-03 17:00
1583279283540.0,0.0,0.0,88.94580841064453,0.7134643495082855,0.5484252870082855,0.4359009265899658,-0.012280285358428955,3.671092987060547,2.9929676055908203,-0.17421722412109375,22.53360366821289,3.0,2020-03-03 17:48:03.540000-06:00,2020-03-03 17:00
1583279283590.0,0.0,0.0,89.46907472610474,0.7100708018988371,0.5454345643520355,0.44481201469898224,-0.02060546725988388,3.4156265258789062,3.0999984741210938,0.009372711181640625,21.46131134033203,3.0,2020-03-03 17:48:03.590000-06:00,2020-03-03 17:00
1583279283640.0,0.0,0.0,89.53462958335876,0.7097290046513081,0.5481201112270355,0.4421752989292145,-0.019018560647964478,3.6031227111816406,2.48203182220459,-0.4367189407348633,19.394622802734375,3.0,2020-03-03 17:48:03.640000-06:00,2020-03-03 17:00
1583279283690.0,0.0,0.0,89.55436086654663,0.7096679694950581,0.5500000044703484,0.44001464545726776,-0.01616211235523224,3.125,2.5359363555908203,-0.328125,16.322006225585938,3.0,2020-03-03 17:48:03.690000-06:00,2020-03-03 17:00
1583279283740.0,0.0,0.0,89.43233013153076,0.7104858383536339,0.551293944939971,0.4371582120656967,-0.012158215045928955,3.1203136444091797,2.32421875,-0.4171874523162842,15.331192016601562,3.0,2020-03-03 17:48:03.740000-06:00,2020-03-03 17:00
1583279283790.0,0.0,0.0,89.2387638092041,0.71173095703125,0.5514648426324129,0.43500977009534836,-0.008386224508285522,3.245311737060547,2.4109373092651367,-0.43515634536743164,16.593505859375,3.0,2020-03-03 17:48:03.790000-06:00,2020-03-03 17:00
1583279283840.0,0.0,0.0,89.16993546485901,0.7121704109013081,0.5518676787614822,0.43378906324505806,-0.00555419921875,2.850780487060547,2.2945308685302734,-0.3195314407348633,13.537643432617188,3.0,2020-03-03 17:48:03.840000-06:00,2020-03-03 17:00
1583279283890.0,0.0,0.0,89.20722198486328,0.7119628908112645,0.5524169951677322,0.43348388373851776,-0.004138171672821045,2.95703125,2.6343746185302734,-0.28359413146972656,15.7791748046875,3.0,2020-03-03 17:48:03.890000-06:00,2020-03-03 17:00
1583279283940.0,0.0,0.0,89.2254421710968,0.7118652351200581,0.552978515625,0.43295898474752903,-0.0021606385707855225,2.85390567779541,2.34765625,-0.33046889305114746,13.786163330078125,3.0,2020-03-03 17:48:03.940000-06:00,2020-03-03 17:00
1583279283990.0,0.0,0.0,89.26630926132202,0.71160888671875,0.5535766631364822,0.43259277381002903,-0.0011718720197677612,2.7281246185302734,2.178905487060547,-0.26796913146972656,12.2872314453125,3.0,2020-03-03 17:48:03.990000-06:00,2020-03-03 17:00
1583279284040.0,0.0,0.0,89.30641329288483,0.7113769529387355,0.5542236343026161,0.43218994140625,-0.0005615241825580597,2.827342987060547,2.367969512939453,-0.18984365463256836,13.669754028320312,3.0,2020-03-03 17:48:04.040000-06:00,2020-03-03 17:00
1583279284090.0,0.0,0.0,89.2968442440033,0.7114135744050145,0.5551269520074129,0.4308959972113371,0.0002563484013080597,2.6195311546325684,2.0921874046325684,-0.26015615463256836,11.310528755187988,3.0,2020-03-03 17:48:04.090000-06:00,2020-03-03 17:00
1583279284140.0,0.0,0.0,89.42441940307617,0.7097412049770355,0.5670654773712158,0.41451406478881836,0.01654052734375,2.54296875,2.1374998092651367,-0.20546913146972656,11.081672668457031,3.0,2020-03-03 17:48:04.140000-06:00,2020-03-03 17:00
1583279284190.0,0.0,0.0,89.97566413879395,0.7019897699356079,0.6172608137130737,0.34440910816192627,0.08544921875,1.9929656982421875,1.6156234741210938,-0.21328067779541016,8.40435791015625,3.0,2020-03-03 17:48:04.190000-06:00,2020-03-03 17:00
1583279284240.0,0.0,0.0,90.30827140808105,0.6962402313947678,0.6332641541957855,0.3188110589981079,0.11196291446685791,-0.08203125,-0.046875,-0.01171875,0.009307861328125,3.0,2020-03-03 17:48:04.240000-06:00,2020-03-03 17:00
1583279284290.0,0.0,0.0,90.48964309692383,0.6929077059030533,0.6403930485248566,0.3068481683731079,0.1248779296875,-0.05000019073486328,-0.0546875,0.007031440734863281,0.0105133056640625,3.0,2020-03-03 17:48:04.290000-06:00,2020-03-03 17:00
1583279284340.0,0.0,0.0,90.61387777328491,0.6907470673322678,0.6447387784719467,0.29948729276657104,0.13242188096046448,0.0703125,-0.06093788146972656,-0.04140627384185791,0.01312565803527832,3.0,2020-03-03 17:48:04.340000-06:00,2020-03-03 17:00
1583279284390.0,0.0,0.0,90.70210886001587,0.6890502944588661,0.6478027254343033,0.29407957196235657,0.1381591558456421,0.024219036102294922,0.02187490463256836,-0.02734375,0.004119873046875,3.0,2020-03-03 17:48:04.390000-06:00,2020-03-03 17:00
1583279284440.0,0.0,0.0,90.75894278287888,0.687744140625,0.6502685546875,0.28944092988967896,0.14278563857078552,0.0015621185302734375,-0.04531252384185791,-0.01718759536743164,0.00953364372253418,3.0,2020-03-03 17:48:04.440000-06:00,2020-03-03 17:00
1583279284490.0,0.0,0.0,90.78023195266724,0.6867919862270355,0.6520751938223839,0.28570556640625,0.146728515625,0.09921932220458984,-0.02968764305114746,-0.07109451293945312,0.02953493595123291,3.0,2020-03-03 17:48:04.490000-06:00,2020-03-03 17:00
1583279284540.0,0.0,0.0,90.83774781227112,0.6857055649161339,0.6537841781973839,0.28264160454273224,0.1500244140625,-0.07343721389770508,0.015625,0.04296875,0.010317981243133545,3.0,2020-03-03 17:48:04.540000-06:00,2020-03-03 17:00
1583279284590.0,0.0,0.0,90.8870599269867,0.6847656220197678,0.65533447265625,0.27978515625,0.15283203125,0.02187502384185791,0.0546875,0.01171875,0.0038604736328125,3.0,2020-03-03 17:48:04.590000-06:00,2020-03-03 17:00
1583279284640.0,0.0,0.0,90.90245741605759,0.6842163056135178,0.65625,0.2778564542531967,0.15480956435203552,0.02656245231628418,0.0625,0.00390625,0.0075469911098480225,3.0,2020-03-03 17:48:04.640000-06:00,2020-03-03 17:00
1583279284690.0,0.0,0.0,90.92366695404053,0.68353271484375,0.6572265625,0.2758544944226742,0.15717773884534836,0.0546875,0.010156631469726562,-0.013280868530273438,0.01189577579498291,3.0,2020-03-03 17:48:04.690000-06:00,2020-03-03 17:00
1583279284740.0,0.0,0.0,91.03963160514832,0.68243408203125,0.6583374030888081,0.2750610336661339,0.15876465290784836,-0.0031250715255737305,0.12109375,0.02187490463256836,0.02898252010345459,3.0,2020-03-03 17:48:04.740000-06:00,2020-03-03 17:00
1583279284790.0,0.0,0.0,91.07427930831909,0.6818481460213661,0.658959960564971,0.27412109076976776,0.16032714396715164,0.01718747615814209,-0.08281278610229492,-0.06093752384185791,0.011767566204071045,3.0,2020-03-03 17:48:04.790000-06:00,2020-03-03 17:00
1583279284840.0,0.0,0.0,91.08874583244324,0.6814208989962935,0.6593139646574855,0.2735351584851742,0.16180419921875,0.01953125,-0.04609394073486328,-0.0546875,0.00761103630065918,3.0,2020-03-03 17:48:04.840000-06:00,2020-03-03 17:00
1583279284890.0,0.0,0.0,91.06635105609894,0.6812011729925871,0.6594116203486919,0.27290039137005806,0.16325683146715164,-0.00390625,-0.11875009536743164,-0.04765605926513672,0.01812136173248291,3.0,2020-03-03 17:48:04.890000-06:00,2020-03-03 17:00
1583279284940.0,0.0,0.0,91.09471035003662,0.6807373054325581,0.6597656272351742,0.27253418043255806,0.16448974609375,-0.015625,-0.03125,-0.02265620231628418,0.004275515675544739,3.0,2020-03-03 17:48:04.940000-06:00,2020-03-03 17:00
1583279284990.0,0.0,0.0,91.16250991821289,0.6799560561776161,0.6605224609375,0.27174071967601776,0.16584472730755806,0.06874990463256836,0.04531288146972656,-0.02421879768371582,0.00879216194152832,3.0,2020-03-03 17:48:04.990000-06:00,2020-03-03 17:00
1583279285040.0,0.0,0.0,91.21090972423553,0.679479980841279,0.66107177734375,0.27121582068502903,0.16657714545726776,0.0859375,0.06328105926513672,0.006249904632568359,0.018240362405776978,3.0,2020-03-03 17:48:05.040000-06:00,2020-03-03 17:00
1583279285090.0,0.0,0.0,91.22975334525108,0.6791259767487645,0.6613525385037065,0.2707763686776161,0.1674316395074129,0.0546875,-0.07500028610229492,-0.04531252384185791,0.011560022830963135,3.0,2020-03-03 17:48:05.090000-06:00,2020-03-03 17:00
1583279285140.0,0.0,0.0,91.2254850268364,0.6790893552824855,0.661474609747529,0.27042236272245646,0.16771240253001451,0.06093740463256836,-0.02890634536743164,-0.0390625,0.006936609745025635,3.0,2020-03-03 17:48:05.140000-06:00,2020-03-03 17:00
1583279285190.0,0.0,0.0,91.22646725177765,0.6790771484375,0.661401366814971,0.27061767503619194,0.1677368152886629,0.07265615463256836,-0.048438072204589844,-0.03750002384185791,0.014260858297348022,3.0,2020-03-03 17:48:05.190000-06:00,2020-03-03 17:00
1583279285240.0,0.0,0.0,91.25564122200012,0.6788208009675145,0.6614624029025435,0.27094726637005806,0.16802978515625,0.00390625,0.06874990463256836,-0.03749990463256836,0.00846252590417862,3.0,2020-03-03 17:48:05.240000-06:00,2020-03-03 17:00
1583279285290.0,0.0,0.0,91.25862288475037,0.6788085931912065,0.6612670905888081,0.2714965818449855,0.16804199200123549,-0.025000572204589844,-0.0046874284744262695,-0.05312514305114746,0.0084228515625,3.0,2020-03-03 17:48:05.290000-06:00,2020-03-03 17:00
1583279285340.0,0.0,0.0,91.24489426612854,0.6788818370550871,0.6611816436052322,0.271484375,0.16810302715748549,0.08828115463256836,0.0,-0.0007815361022949219,0.01265258714556694,3.0,2020-03-03 17:48:05.340000-06:00,2020-03-03 17:00
1583279285390.0,0.0,0.0,91.30165219306946,0.67852783203125,0.661706542596221,0.2711669933050871,0.16813964862376451,0.00234377384185791,0.09375,0.05859375,0.012237548828125,3.0,2020-03-03 17:48:05.390000-06:00,2020-03-03 17:00
1583279285440.0,0.0,0.0,91.35369062423706,0.6782104503363371,0.6620849603787065,0.2710327170789242,0.16799316555261612,0.00390625,0.06875038146972656,0.03593730926513672,0.010830700397491455,3.0,2020-03-03 17:48:05.440000-06:00,2020-03-03 17:00
1583279285490.0,0.0,0.0,91.40901970863342,0.67791748046875,0.662207031622529,0.27163085993379354,0.16774902120232582,0.008593559265136719,-0.061717987060546875,-0.05156254768371582,0.013116598129272461,3.0,2020-03-03 17:48:05.490000-06:00,2020-03-03 17:00
1583279285540.0,0.0,0.0,91.3908920288086,0.6778808599337935,0.662109375,0.2715576160699129,0.1683349609375,-0.08984375,-0.17421889305114746,-0.04843735694885254,0.041717529296875,3.0,2020-03-03 17:48:05.540000-06:00,2020-03-03 17:00
1583279285590.0,0.0,0.0,91.41116083413363,0.677734375,0.662109375,0.2718505859375,0.16834716778248549,-0.030467987060546875,-0.08750057220458984,-0.06171846389770508,0.02759397029876709,3.0,2020-03-03 17:48:05.590000-06:00,2020-03-03 17:00
1583279285640.0,0.0,0.0,91.41465413570404,0.677709961310029,0.6621215818449855,0.27188720647245646,0.16837158240377903,0.05859375,0.06953144073486328,0.02968752384185791,0.017816126346588135,3.0,2020-03-03 17:48:05.640000-06:00,2020-03-03 17:00
1583279285690.0,0.0,0.0,91.43655705451965,0.6775634773075581,0.6622070306912065,0.27200927771627903,0.16835937462747097,-0.03515625,-0.07343769073486328,0.0078125,0.0077667236328125,3.0,2020-03-03 17:48:05.690000-06:00,2020-03-03 17:00
1583279285740.0,0.0,0.0,91.45832645893097,0.677343750372529,0.662377929314971,0.27194824162870646,0.16868896503001451,-0.02734375,0.00937509536743164,0.00625002384185791,0.00231015682220459,3.0,2020-03-03 17:48:05.740000-06:00,2020-03-03 17:00
1583279285790.0,0.0,0.0,91.47446465492249,0.6772827142849565,0.662451172247529,0.2720825197175145,0.16860351618379354,0.01484370231628418,0.05390596389770508,-0.006249904632568359,0.00614624097943306,3.0,2020-03-03 17:48:05.790000-06:00,2020-03-03 17:00
1583279285840.0,0.0,0.0,91.45598655939102,0.67742919921875,0.662353515625,0.27200927771627903,0.16846923809498549,0.05703127384185791,-0.04140627384185791,-0.0234375,0.005780041217803955,3.0,2020-03-03 17:48:05.840000-06:00,2020-03-03 17:00
1583279285890.0,0.0,0.0,91.45607149600983,0.6774088540114462,0.662353515625,0.27197265625,0.168487548828125,0.03125,-0.027994871139526367,0.012369751930236816,0.004180908203125,3.0,2020-03-03 17:48:05.890000-06:00,2020-03-03 17:00
1583279285940.0,0.0,0.0,91.47643446922302,0.67730712890625,0.662353515625,0.27227783203125,0.1683349609375,-0.06640625,0.0078125,0.03515625,0.005706787109375,3.0,2020-03-03 17:48:05.940000-06:00,2020-03-03 17:00
1583279285990.0,0.0,0.0,91.5098237991333,0.677160644903779,0.662353515625,0.2728393543511629,0.16810302715748549,-0.04296875,0.0078125,0.04296875,0.003753662109375,3.0,2020-03-03 17:48:05.990000-06:00,2020-03-03 17:00
1583279286040.0,0.0,0.0,91.5251798927784,0.6770507814362645,0.6623657224699855,0.27309570368379354,0.168212890625,-0.04140627384185791,0.00234377384185791,0.02656269073486328,0.003631591796875,3.0,2020-03-03 17:48:06.040000-06:00,2020-03-03 17:00
1583279286090.0,0.0,0.0,91.52843260765076,0.6769897462800145,0.6624267576262355,0.27299804612994194,0.16837158240377903,-0.01953125,-0.004687786102294922,-0.02265644073486328,0.0038513243198394775,3.0,2020-03-03 17:48:06.090000-06:00,2020-03-03 17:00
1583279286140.0,0.0,0.0,91.5476054251194,0.676965331658721,0.6624633790925145,0.2732055662199855,0.1679565440863371,0.05234360694885254,0.046875,0.03593730926513672,0.007022097706794739,3.0,2020-03-03 17:48:06.140000-06:00,2020-03-03 17:00
1583279286190.0,0.0,0.0,91.54346159519628,0.6770751951262355,0.6624023439362645,0.27329101506620646,0.16762695368379354,0.06953096389770508,0.01718747615814209,0.0078125,0.0068511962890625,3.0,2020-03-03 17:48:06.190000-06:00,2020-03-03 17:00
1583279286240.0,0.0,0.0,91.55615305900574,0.677038574591279,0.6624023430049419,0.27352294884622097,0.16749267559498549,-0.03437519073486328,0.01640605926513672,0.0078125,0.00376284122467041,3.0,2020-03-03 17:48:06.240000-06:00,2020-03-03 17:00
1583279286290.0,0.0,0.0,91.61093139648438,0.6766601568087935,0.6626708973199129,0.27374267578125,0.16759033128619194,-0.08515644073486328,0.018749237060546875,0.0015625953674316406,0.017825305461883545,3.0,2020-03-03 17:48:06.290000-06:00,2020-03-03 17:00
1583279286340.0,0.0,0.0,91.63450503349304,0.676489258185029,0.6630004877224565,0.27330322191119194,0.16763916239142418,0.07265627384185791,0.1171875,-0.008594036102294922,0.02217400074005127,3.0,2020-03-03 17:48:06.340000-06:00,2020-03-03 17:00
1583279286390.0,0.0,0.0,91.66303491592407,0.6764282220974565,0.663122558966279,0.2734375,0.16710205003619194,0.05546879768371582,0.0234375,0.04218745231628418,0.0061798095703125,3.0,2020-03-03 17:48:06.390000-06:00,2020-03-03 17:00
1583279286440.0,0.0,0.0,91.644451379776,0.676489258185029,0.6630371091887355,0.2733520530164242,0.16734619066119194,-0.017188072204589844,0.01796877384185791,0.00625002384185791,0.004128992557525635,3.0,2020-03-03 17:48:06.440000-06:00,2020-03-03 17:00
1583279286490.0,0.0,0.0,91.6733980178833,0.676232909783721,0.6630371101200581,0.2738281227648258,0.16765137016773224,-0.12812507152557373,0.01875019073486328,-0.0046874284744262695,0.019018560647964478,3.0,2020-03-03 17:48:06.490000-06:00,2020-03-03 17:00
1583279286540.0,0.0,0.0,91.5999903678894,0.6766113275662065,0.6628784174099565,0.2730468772351742,0.16804199293255806,-0.04218864440917969,0.07109355926513672,-0.0390625,0.03325486183166504,3.0,2020-03-03 17:48:06.540000-06:00,2020-03-03 17:00
1583279286590.0,0.0,0.0,91.57368636131287,0.6768798828125,0.6629638671875,0.27242431696504354,0.16765137016773224,0.19296932220458984,-0.04374980926513672,-0.06328105926513672,0.05939316749572754,3.0,2020-03-03 17:48:06.590000-06:00,2020-03-03 17:00
1583279286640.0,0.0,0.0,91.4982099533081,0.6775390617549419,0.662634277716279,0.2719970718026161,0.16691894456744194,0.06796860694885254,0.06328105926513672,0.04843711853027344,0.02667844295501709,3.0,2020-03-03 17:48:06.640000-06:00,2020-03-03 17:00
1583279286690.0,0.0,0.0,91.39051961898804,0.6781860357150435,0.662268066778779,0.27110595256090164,0.16701660305261612,0.056250572204589844,-0.06562614440917969,-0.08828067779541016,0.0406036376953125,3.0,2020-03-03 17:48:06.690000-06:00,2020-03-03 17:00
1583279286740.0,0.0,0.0,91.42454195022583,0.6780883781611919,0.662109375,0.2720947265625,0.16661376971751451,-0.13437509536743164,0.17734384536743164,0.04296875,0.05426621437072754,3.0,2020-03-03 17:48:06.740000-06:00,2020-03-03 17:00
1583279286790.0,0.0,0.0,91.40147346258163,0.6782958982512355,0.66180419921875,0.27250976487994194,0.16644287109375,-0.07578182220458984,0.19140625,0.08124971389770508,0.07561635971069336,3.0,2020-03-03 17:48:06.790000-06:00,2020-03-03 17:00
1583279286840.0,0.0,0.0,91.40157413482666,0.67840576171875,0.6615478517487645,0.2730957046151161,0.16593017615377903,0.05390632152557373,-0.08046889305114746,-0.008593559265136719,0.010092169046401978,3.0,2020-03-03 17:48:06.840000-06:00,2020-03-03 17:00
1583279286890.0,0.0,0.0,91.36147499084473,0.6787231434136629,0.6614990234375,0.27259521186351776,0.16572265326976776,0.04921913146972656,-0.05078125,0.02421867847442627,0.006710827350616455,3.0,2020-03-03 17:48:06.890000-06:00,2020-03-03 17:00
1583279286940.0,0.0,0.0,91.32535886764526,0.6790893543511629,0.6614501960575581,0.2721435548737645,0.16518554836511612,0.07500076293945312,-0.05781221389770508,0.03359389305114746,0.016506969928741455,3.0,2020-03-03 17:48:06.940000-06:00,2020-03-03 17:00
1583279286990.0,0.0,0.0,91.29469847679138,0.6793701173737645,0.6612426759675145,0.27214355394244194,0.16481933556497097,-0.05312490463256836,0.03203105926513672,0.0007811784744262695,0.004290759563446045,3.0,2020-03-03 17:48:06.990000-06:00,2020-03-03 17:00
1583279287040.0,0.0,0.0,91.2935779094696,0.6793579095974565,0.6610351540148258,0.27263183146715164,0.16490478534251451,-0.08437490463256836,-0.00390625,0.004687786102294922,0.0084381103515625,3.0,2020-03-03 17:48:07.040000-06:00,2020-03-03 17:00
1583279287090.0,0.0,0.0,91.26064562797546,0.6795532219111919,0.6602905243635178,0.27388915978372097,0.16494140587747097,-0.09531211853027344,-0.05546903610229492,-0.04765605926513672,0.017071545124053955,3.0,2020-03-03 17:48:07.090000-06:00,2020-03-03 17:00
1583279287140.0,0.0,0.0,91.2121512889862,0.6797851556912065,0.659875487908721,0.27409667894244194,0.16523437574505806,-0.014843463897705078,-0.09062480926513672,-0.00390625,0.02026977390050888,3.0,2020-03-03 17:48:07.140000-06:00,2020-03-03 17:00
1583279287190.0,0.0,0.0,91.20051872730255,0.679931640625,0.660058593377471,0.27344970405101776,0.16490478441119194,0.09453105926513672,0.07734394073486328,0.06328117847442627,0.02071225643157959,3.0,2020-03-03 17:48:07.190000-06:00,2020-03-03 17:00
1583279287240.0,0.0,0.0,91.243567943573,0.6798095703125,0.6605102568864822,0.2730834949761629,0.16433105524629354,0.11093807220458984,0.03437519073486328,0.08828115463256836,0.02800597995519638,3.0,2020-03-03 17:48:07.240000-06:00,2020-03-03 17:00
1583279287290.0,0.0,0.0,91.33246862888336,0.67926025390625,0.6609130864962935,0.2735595703125,0.16429443657398224,-0.07578086853027344,0.07578182220458984,0.06875038146972656,0.04479360580444336,3.0,2020-03-03 17:48:07.290000-06:00,2020-03-03 17:00
1583279287340.0,0.0,0.0,91.35738652944565,0.6789794927462935,0.660681152716279,0.27452392131090164,0.1648071277886629,-0.23593807220458984,-0.11171889305114746,-0.09843754768371582,0.08835792541503906,3.0,2020-03-03 17:48:07.340000-06:00,2020-03-03 17:00
1583279287390.0,0.0,0.0,91.36457455158234,0.6788452146574855,0.6603027349337935,0.2755126953125,0.16511230450123549,-0.010155677795410156,-0.06484389305114746,-0.05312502384185791,0.010833740234375,3.0,2020-03-03 17:48:07.390000-06:00,2020-03-03 17:00
1583279287440.0,0.0,0.0,91.35403668880463,0.678918456658721,0.6601440431550145,0.27573242224752903,0.16510009765625,0.11171865463256836,-0.01640629768371582,-0.02890634536743164,0.015512079000473022,3.0,2020-03-03 17:48:07.440000-06:00,2020-03-03 17:00
1583279287490.0,0.0,0.0,91.33633923530579,0.6790527338162065,0.6601074216887355,0.2754882834851742,0.1649291981011629,0.12578129768371582,0.02734375,0.03359389305114746,0.018527209758758545,3.0,2020-03-03 17:48:07.490000-06:00,2020-03-03 17:00
1583279287540.0,0.0,0.0,91.30419137328863,0.679174805060029,0.660180663689971,0.2748291026800871,0.16531982272863388,0.048438072204589844,0.02890622615814209,0.0023436546325683594,0.00786743313074112,3.0,2020-03-03 17:48:07.540000-06:00,2020-03-03 17:00
1583279287590.0,0.0,0.0,91.30498546361923,0.679052734747529,0.660302734002471,0.2745239259675145,0.16575927659869194,-0.07187461853027344,0.02734375,0.010937690734863281,0.008145153522491455,3.0,2020-03-03 17:48:07.590000-06:00,2020-03-03 17:00
1583279287640.0,0.0,0.0,91.32013845443726,0.6789062507450581,0.6604370111599565,0.27447509765625,0.166015625,-0.0007815361022949219,0.01875019073486328,-0.03828144073486328,0.005828857421875,3.0,2020-03-03 17:48:07.640000-06:00,2020-03-03 17:00
1583279287690.0,0.0,0.0,91.34621465206146,0.678686523810029,0.66058349609375,0.2745483387261629,0.16624755878001451,0.04218769073486328,0.07734394073486328,0.004687309265136719,0.015017718076705933,3.0,2020-03-03 17:48:07.690000-06:00,2020-03-03 17:00
1583279287740.0,0.0,0.0,91.36108958721161,0.6786010740324855,0.6605712892487645,0.27481689490377903,0.16621093731373549,-0.005468845367431641,-0.03515625,-0.07500004768371582,0.00963747501373291,3.0,2020-03-03 17:48:07.740000-06:00,2020-03-03 17:00
1583279287790.0,0.0,0.0,91.34966308996081,0.67864990234375,0.660498047247529,0.2747802734375,0.166259765625,0.05000019073486328,0.01953125,-0.03125,0.00517880916595459,3.0,2020-03-03 17:48:07.790000-06:00,2020-03-03 17:00
1583279287840.0,0.0,0.0,91.3426992893219,0.6786987297236919,0.6603881837800145,0.2749511729925871,0.16627197246998549,-0.0078125,-0.01171875,-0.02968752384185791,0.0013336185365915298,3.0,2020-03-03 17:48:07.840000-06:00,2020-03-03 17:00
1583279287890.0,0.0,0.0,91.32214713096619,0.6788452155888081,0.660363769158721,0.27471923828125,0.16627197340130806,0.02890622615814209,-0.01015627384185791,-0.02499997615814209,0.0017028898000717163,3.0,2020-03-03 17:48:07.890000-06:00,2020-03-03 17:00
1583279287940.0,0.0,0.0,91.3595838546753,0.678625488653779,0.6604980463162065,0.27493896521627903,0.16610107384622097,0.02968740463256836,0.0078125,-0.02265620231628418,0.004080191254615784,3.0,2020-03-03 17:48:07.940000-06:00,2020-03-03 17:00
1583279287990.0,0.0,0.0,91.3749552667141,0.67852783203125,0.6606079107150435,0.27495117485523224,0.16614990308880806,-0.0390625,0.01640605926513672,-0.0015625953674316406,0.009341418743133545,3.0,2020-03-03 17:48:07.990000-06:00,2020-03-03 17:00
1583279288040.0,0.0,0.0,91.38105484098196,0.67852783203125,0.6604492189362645,0.27541503868997097,0.16596679668873549,0.010937690734863281,-0.11328125,-0.04140615463256836,0.01819467544555664,3.0,2020-03-03 17:48:08.040000-06:00,2020-03-03 17:00
1583279288090.0,0.0,0.0,91.37949275271967,0.6785400388762355,0.6603881837800145,0.27554931584745646,0.16597900446504354,-0.0234375,-0.0031251907348632812,0.00625002384185791,0.0027709901332855225,3.0,2020-03-03 17:48:08.090000-06:00,2020-03-03 17:00
1583279288140.0,0.0,0.0,91.37954305484891,0.6786010740324855,0.6603515623137355,0.27567138709127903,0.16578369215130806,0.0390625,0.033593177795410156,-0.02499985694885254,0.0069732666015625,3.0,2020-03-03 17:48:08.140000-06:00,2020-03-03 17:00
1583279288190.0,0.0,0.0,91.37670236825943,0.678674316033721,0.660400390625,0.2755126953125,0.16556396521627903,0.04062497615814209,-0.051563262939453125,-0.04765653610229492,0.0111846923828125,3.0,2020-03-03 17:48:08.190000-06:00,2020-03-03 17:00
1583279288240.0,0.0,0.0,91.36294110864401,0.67877197265625,0.6604125974699855,0.27524414099752903,0.16549072228372097,0.028125286102294922,0.041405677795410156,-0.003124713897705078,0.008145123720169067,3.0,2020-03-03 17:48:08.240000-06:00,2020-03-03 17:00
1583279288290.0,0.0,0.0,91.36703968048096,0.6787231452763081,0.6604736326262355,0.27519531175494194,0.16563720628619194,-0.05156242847442627,-0.043750762939453125,-0.04609394073486328,0.011575317941606045,3.0,2020-03-03 17:48:08.290000-06:00,2020-03-03 17:00
1583279288340.0,0.0,0.0,91.39159852266312,0.678503418341279,0.6604858404025435,0.2755126953125,0.16582031268626451,-0.0546875,0.06953120231628418,0.01953125,0.009478747844696045,3.0,2020-03-03 17:48:08.340000-06:00,2020-03-03 17:00
1583279288390.0,0.0,0.0,91.40345227718353,0.67840576171875,0.660363769158721,0.27593994140625,0.16582031175494194,0.01874995231628418,0.02890634536743164,0.01953125,0.0022033601999282837,3.0,2020-03-03 17:48:08.390000-06:00,2020-03-03 17:00
1583279288440.0,0.0,0.0,91.40035465359688,0.6783935548737645,0.660485839471221,0.27565918024629354,0.16605224553495646,0.05156254768371582,0.01015615463256836,0.012499809265136719,0.003750622272491455,3.0,2020-03-03 17:48:08.440000-06:00,2020-03-03 17:00
1583279288490.0,0.0,0.0,91.41067969799042,0.6783081060275435,0.6605957029387355,0.2755859363824129,0.16617431677877903,0.015625,0.02734375,-0.015625,0.0017242431640625,3.0,2020-03-03 17:48:08.490000-06:00,2020-03-03 17:00
1583279288540.0,0.0,0.0,91.43477720022202,0.6781738279387355,0.66064453125,0.27584228571504354,0.16607666015625,0.03750014305114746,0.005468606948852539,-0.00703120231628418,0.0024841316044330597,3.0,2020-03-03 17:48:08.540000-06:00,2020-03-03 17:00
1583279288590.0,0.0,0.0,91.422736287117,0.6782592767849565,0.6606323244050145,0.27567138709127903,0.16602783277630806,0.014843463897705078,0.03515625,0.01874995231628418,0.0032287687063217163,3.0,2020-03-03 17:48:08.590000-06:00,2020-03-03 17:00
1583279288640.0,0.0,0.0,91.40437853336334,0.678430175408721,0.660559082403779,0.2755615236237645,0.16582031268626451,0.05156230926513672,0.01015615463256836,-0.008593559265136719,0.005242928862571716,3.0,2020-03-03 17:48:08.640000-06:00,2020-03-03 17:00
1583279288690.0,0.0,0.0,91.39742660522461,0.6784790046513081,0.6605224609375,0.2755126953125,0.16575927753001451,-0.0390625,0.02734375,0.0031251907348632812,0.0036041289567947388,3.0,2020-03-03 17:48:08.690000-06:00,2020-03-03 17:00
1583279288740.0,0.0,0.0,91.44083666801453,0.6782348640263081,0.6608154289424419,0.2755249021574855,0.16566162183880806,-0.03125,0.01875019073486328,-0.03828096389770508,0.00743710994720459,3.0,2020-03-03 17:48:08.740000-06:00,2020-03-03 17:00
1583279288790.0,0.0,0.0,91.47123777866364,0.678063964471221,0.6609985353425145,0.27552490308880806,0.16549072228372097,0.0015624761581420898,0.07109355926513672,0.03749990463256836,0.0141143798828125,3.0,2020-03-03 17:48:08.790000-06:00,2020-03-03 17:00
1583279288840.0,0.0,0.0,91.44784832000732,0.6781982416287065,0.6609375001862645,0.27530517615377903,0.16556396521627903,0.00625002384185791,-0.05859375,-0.0390625,0.007449358701705933,3.0,2020-03-03 17:48:08.840000-06:00,2020-03-03 17:00
1583279288890.0,0.0,0.0,91.43325406312943,0.6783325197175145,0.660913085564971,0.27515869215130806,0.16544189490377903,0.0015624761581420898,0.03515625,-0.0078125,0.001309203915297985,3.0,2020-03-03 17:48:08.890000-06:00,2020-03-03 17:00
1583279288940.0,0.0,0.0,91.43327474594116,0.6783325187861919,0.6610229490324855,0.27482910081744194,0.16533203143626451,0.01249992847442627,0.03359377384185791,-0.0078125,0.0014434810727834702,3.0,2020-03-03 17:48:08.940000-06:00,2020-03-03 17:00
1583279288990.0,0.0,0.0,91.39395904541016,0.6786010731011629,0.661047363653779,0.274169921875,0.16530761681497097,0.0234375,0.00390625,-0.00937497615814209,0.0031036436557769775,3.0,2020-03-03 17:48:08.990000-06:00,2020-03-03 17:00
1583279289040.0,0.0,0.0,91.34074258804321,0.6789306635037065,0.6609375001862645,0.2736083995550871,0.16539306659251451,-0.00937497615814209,-0.07265615463256836,-0.01015627384185791,0.0067810118198394775,3.0,2020-03-03 17:48:09.040000-06:00,2020-03-03 17:00
1583279289090.0,0.0,0.0,91.31178867816925,0.6791137689724565,0.6609008787199855,0.27320556342601776,0.16535644512623549,-0.0078125,0.0023436546325683594,0.01640617847442627,0.000823974609375,3.0,2020-03-03 17:48:09.090000-06:00,2020-03-03 17:00
1583279289140.0,0.0,0.0,91.28334081172943,0.6792968744412065,0.6609375001862645,0.2726928722113371,0.1654052734375,0.02187502384185791,0.01953125,0.020312786102294922,0.0024078376591205597,3.0,2020-03-03 17:48:09.140000-06:00,2020-03-03 17:00
1583279289190.0,0.0,0.0,91.25503599643707,0.6794921867549419,0.6608520513400435,0.27243652287870646,0.1653320323675871,0.015625,-0.00390625,-0.02578115463256836,0.001873779110610485,3.0,2020-03-03 17:48:09.190000-06:00,2020-03-03 17:00
1583279289240.0,0.0,0.0,91.22410154342651,0.6797607410699129,0.6606567390263081,0.27244872972369194,0.16510009765625,0.00937509536743164,0.01796889305114746,0.02421879768371582,0.0015441924333572388,3.0,2020-03-03 17:48:09.240000-06:00,2020-03-03 17:00
1583279289290.0,0.0,0.0,91.1696949005127,0.6800537109375,0.66046142578125,0.2719848621636629,0.16522216796875,-0.00937509536743164,0.012499809265136719,0.01015627384185791,0.00461733341217041,3.0,2020-03-03 17:48:09.290000-06:00,2020-03-03 17:00
1583279289340.0,0.0,0.0,91.17660069465637,0.6801513656973839,0.6603881847113371,0.2722656251862645,0.16462402045726776,0.02578139305114746,0.1390625238418579,0.00546872615814209,0.02046509087085724,3.0,2020-03-03 17:48:09.340000-06:00,2020-03-03 17:00
1583279289390.0,0.0,0.0,91.11710786819458,0.6806396469473839,0.660009765997529,0.272216796875,0.16416015662252903,0.05156278610229492,0.07890605926513672,0.00859379768371582,0.02150268852710724,3.0,2020-03-03 17:48:09.390000-06:00,2020-03-03 17:00
1583279289440.0,0.0,0.0,91.05290365219116,0.6811035145074129,0.6596191413700581,0.27219238318502903,0.16403808631002903,-0.021875381469726562,-0.09687519073486328,0.0023436546325683594,0.0171661376953125,3.0,2020-03-03 17:48:09.440000-06:00,2020-03-03 17:00
1583279289490.0,0.0,0.0,91.02023673057556,0.6813598638400435,0.65948486328125,0.27204589918255806,0.16392822284251451,-0.0546875,0.05546855926513672,0.03203117847442627,0.00957643985748291,3.0,2020-03-03 17:48:09.490000-06:00,2020-03-03 17:00
1583279289540.0,0.0,0.0,91.06110191345215,0.6811157241463661,0.659814452752471,0.27188720647245646,0.16383056715130806,0.024999618530273438,0.04843759536743164,0.04921877384185791,0.00797426700592041,3.0,2020-03-03 17:48:09.540000-06:00,2020-03-03 17:00
1583279289590.0,0.0,0.0,91.12067532539368,0.6807739250361919,0.66009521484375,0.2721069324761629,0.16357421875,-0.0234375,0.10078144073486328,0.03828132152557373,0.01660764217376709,3.0,2020-03-03 17:48:09.590000-06:00,2020-03-03 17:00
1583279289640.0,0.0,0.0,91.09714305400848,0.680993651971221,0.6598022468388081,0.2724731434136629,0.16334228496998549,0.00937497615814209,-0.057811737060546875,0.0023436546325683594,0.008340597152709961,3.0,2020-03-03 17:48:09.640000-06:00,2020-03-03 17:00
1583279289690.0,0.0,0.0,91.08771502971649,0.681066894903779,0.6595947267487645,0.2728637680411339,0.16335449274629354,0.00937509536743164,-0.12187385559082031,-0.04296875,0.03251028060913086,3.0,2020-03-03 17:48:09.690000-06:00,2020-03-03 17:00
1583279289740.0,0.0,0.0,91.11433696746826,0.6809204109013081,0.6595825189724565,0.27329101506620646,0.1632080078125,0.0015625953674316406,0.09296894073486328,0.03828144073486328,0.012994349002838135,3.0,2020-03-03 17:48:09.740000-06:00,2020-03-03 17:00
1583279289790.0,0.0,0.0,91.15154719352722,0.6806884771212935,0.6597412107512355,0.2735107410699129,0.16319580096751451,0.0625,0.02734375,-0.01171875,0.005035400390625,3.0,2020-03-03 17:48:09.790000-06:00,2020-03-03 17:00
1583279289840.0,0.0,0.0,91.1716377735138,0.680566405877471,0.6597534185275435,0.2738037109375,0.16317138634622097,0.0234375,0.00390625,-0.01796865463256836,0.0034851133823394775,3.0,2020-03-03 17:48:09.840000-06:00,2020-03-03 17:00
1583279289890.0,0.0,0.0,91.16175436973572,0.6805908214300871,0.65966796875,0.27382812462747097,0.16329345665872097,-0.0078125,-0.06484413146972656,-0.02734375,0.00848996639251709,3.0,2020-03-03 17:48:09.890000-06:00,2020-03-03 17:00
1583279289940.0,0.0,0.0,91.20681619644165,0.680273437872529,0.659887695685029,0.27401123009622097,0.16340332012623549,-0.0015625953674316406,0.02734375,0.021093368530273438,0.002386476844549179,3.0,2020-03-03 17:48:09.940000-06:00,2020-03-03 17:00
1583279289990.0,0.0,0.0,91.22023862600327,0.680151367560029,0.659765625372529,0.27448730543255806,0.16350097581744194,0.01875007152557373,-0.02578115463256836,-0.04062497615814209,0.004788219928741455,3.0,2020-03-03 17:48:09.990000-06:00,2020-03-03 17:00
1583279290040.0,0.0,0.0,91.23421324789524,0.6800415040925145,0.6596191413700581,0.27513428032398224,0.16370849590748549,0.0015624761581420898,-0.08828163146972656,-0.05546855926513672,0.013580322265625,3.0,2020-03-03 17:48:10.040000-06:00,2020-03-03 17:00
1583279290090.0,0.0,0.0,91.2395316362381,0.6799804689362645,0.659448241814971,0.2755615236237645,0.16370849683880806,0.015625,0.00390625,-0.02578127384185791,0.001422107219696045,3.0,2020-03-03 17:48:10.090000-06:00,2020-03-03 17:00
1583279290140.0,0.0,0.0,91.25857818126678,0.679907226935029,0.6595947258174419,0.27548828162252903,0.16346435621380806,0.03750014305114746,0.004687309265136719,-0.00390625,0.00687563419342041,3.0,2020-03-03 17:48:10.140000-06:00,2020-03-03 17:00
1583279290190.0,0.0,0.0,91.28318080306053,0.6797973634675145,0.6597900390625,0.27542724553495646,0.16329345665872097,-0.02265644073486328,0.08515548706054688,0.04296875,0.02172546088695526,3.0,2020-03-03 17:48:10.190000-06:00,2020-03-03 17:00
1583279290240.0,0.0,0.0,91.29137432575226,0.6796997077763081,0.6598022459074855,0.2755615236237645,0.16353759542107582,-0.11328125,-0.07421875,-0.02499997615814209,0.022991925477981567,3.0,2020-03-03 17:48:10.240000-06:00,2020-03-03 17:00
1583279290290.0,0.0,0.0,91.30887770652771,0.679418945685029,0.659875487908721,0.27564697340130806,0.16420898400247097,-0.10468745231628418,0.04296875,-0.04531252384185791,0.015408337116241455,3.0,2020-03-03 17:48:10.290000-06:00,2020-03-03 17:00
1583279290340.0,0.0,0.0,91.36324906349182,0.678991699591279,0.6599853513762355,0.27630615234375,0.16463623009622097,-0.04531288146972656,0.03281259536743164,-0.03046870231628418,0.008633434772491455,3.0,2020-03-03 17:48:10.340000-06:00,2020-03-03 17:00
1583279290390.0,0.0,0.0,91.4017523676157,0.6786376954987645,0.6599975591525435,0.27685546875,0.16502685472369194,0.0546875,0.07890605926513672,-0.0078125,0.015689104795455933,3.0,2020-03-03 17:48:10.390000-06:00,2020-03-03 17:00
1583279290440.0,0.0,0.0,91.3936128616333,0.678613280877471,0.6598388673737645,0.27706298884004354,0.16527099534869194,0.05312502384185791,-0.07265627384185791,-0.046875,0.010562151670455933,3.0,2020-03-03 17:48:10.440000-06:00,2020-03-03 17:00
1583279290490.0,0.0,0.0,91.37572956085205,0.6787109375,0.6598266595974565,0.27685546875,0.16541748121380806,0.04375004768371582,-0.05078125,-0.01406252384185791,0.0057159364223480225,3.0,2020-03-03 17:48:10.490000-06:00,2020-03-03 17:00
1583279290540.0,0.0,0.0,91.37978118658066,0.678735351189971,0.65997314453125,0.27656250074505806,0.16519775427877903,0.03749990463256836,0.00390625,-0.015625,0.0023101866245269775,3.0,2020-03-03 17:48:10.540000-06:00,2020-03-03 17:00
1583279290590.0,0.0,0.0,91.36558794975281,0.6788452146574855,0.659948730841279,0.27639160118997097,0.16511230450123549,0.03750038146972656,-0.01953125,-0.03359365463256836,0.006365969777107239,3.0,2020-03-03 17:48:10.590000-06:00,2020-03-03 17:00
1583279290640.0,0.0,0.0,91.35301494598389,0.6789062498137355,0.6598022468388081,0.27653808519244194,0.16518554650247097,-0.06874990463256836,0.01015627384185791,0.004687786102294922,0.0058990418910980225,3.0,2020-03-03 17:48:10.640000-06:00,2020-03-03 17:00
1583279290690.0,0.0,0.0,91.34377992153168,0.678930664435029,0.6596191404387355,0.27679443359375,0.16527099628001451,-0.0703125,0.00546872615814209,-0.02265644073486328,0.011798095656558871,3.0,2020-03-03 17:48:10.690000-06:00,2020-03-03 17:00
1583279290740.0,0.0,0.0,91.36778843402863,0.6788208009675145,0.65966796875,0.277099609375,0.1651611328125,0.02499997615814209,0.026562213897705078,0.09609389305114746,0.011807251023128629,3.0,2020-03-03 17:48:10.740000-06:00,2020-03-03 17:00
1583279290790.0,0.0,0.0,91.39038145542145,0.6787353521212935,0.65966796875,0.2774414047598839,0.16489257849752903,0.02500009536743164,0.06171846389770508,0.03593730926513672,0.010281354188919067,3.0,2020-03-03 17:48:10.790000-06:00,2020-03-03 17:00
1583279290840.0,0.0,0.0,91.42065382003784,0.6785400398075581,0.6596557619050145,0.2779296860098839,0.1648681629449129,-0.014062881469726562,-0.02734375,-0.03984403610229492,0.004449464380741119,3.0,2020-03-03 17:48:10.840000-06:00,2020-03-03 17:00
1583279291040.0,0.0,0.0,91.44124737381935,0.6784179685637355,0.65985107421875,0.27777099609375,0.164794921875,-0.078125,-0.02734375,0.01953125,0.007232666015625,3.0,2020-03-03 17:48:11.040000-06:00,2020-03-03 17:00
1583279291090.0,0.0,0.0,91.44093024730682,0.6784301763400435,0.65985107421875,0.27781982347369194,0.16484374925494194,-0.08515644073486328,-0.01953125,0.004687786102294922,0.00897824764251709,3.0,2020-03-03 17:48:11.090000-06:00,2020-03-03 17:00
1583279291140.0,0.0,0.0,91.45835256576538,0.6782348640263081,0.65985107421875,0.27806396409869194,0.16513671725988388,-0.10312485694885254,0.02812480926513672,-0.03828144073486328,0.0154571533203125,3.0,2020-03-03 17:48:11.140000-06:00,2020-03-03 17:00
1583279291190.0,0.0,0.0,91.46761989593506,0.678070068359375,0.659820556640625,0.2782694499474019,0.16554768895730376,-0.04296875,0.06184864044189453,0.009765625,0.014307647943496704,3.0,2020-03-03 17:48:11.190000-06:00,2020-03-03 17:00
1583279291240.0,0.0,0.0,91.4439104795456,0.67822265625,0.65966796875,0.2783203125,0.1656494140625,0.0546875,-0.09765625,-0.078125,0.0186309814453125,3.0,2020-03-03 17:48:11.240000-06:00,2020-03-03 17:00
1583279291290.0,0.0,0.0,91.42474842071533,0.6783813461661339,0.6597778322175145,0.2776855491101742,0.16538085974752903,0.14453125,0.01953125,0.0,0.021270751953125,3.0,2020-03-03 17:48:11.290000-06:00,2020-03-03 17:00
1583279291340.0,0.0,0.0,91.37436950206757,0.678802490234375,0.6597747802734375,0.27691650390625,0.165008544921875,0.1044921875,0.0,-0.001953125,0.016887664794921875,3.0,2020-03-03 17:48:11.340000-06:00,2020-03-03 17:00
1583279291390.0,0.0,0.0,91.36633145809174,0.6788736979942769,0.65997314453125,0.2762858076021075,0.16487630223855376,-0.046875,-0.0078125,0.01171875,0.0102691650390625,3.0,2020-03-03 17:48:11.390000-06:00,2020-03-03 17:00
1583279291440.0,0.0,0.0,91.36515355110168,0.6789093017578125,0.660003662109375,0.276214599609375,0.164794921875,-0.087890625,0.0556640625,0.0322265625,0.0186309814453125,3.0,2020-03-03 17:48:11.440000-06:00,2020-03-03 17:00
1583279291490.0,0.0,0.0,91.3195173740387,0.6792144775390625,0.6596221923828125,0.2764892578125,0.164886474609375,-0.0458984375,-0.05859375,-0.025390625,0.007709503173828125,3.0,2020-03-03 17:48:11.490000-06:00,2020-03-03 17:00
1583279291540.0,0.0,0.0,91.28015232086182,0.6794052124023438,0.6593551635742188,0.2764892578125,0.1651153564453125,-0.10205078125,-0.05859375,-0.0302734375,0.015653610229492188,3.0,2020-03-03 17:48:11.540000-06:00,2020-03-03 17:00
1583279291590.0,0.0,0.0,91.25685435533524,0.6795501708984375,0.6594085693359375,0.275909423828125,0.1649932861328125,0.10546875,0.1328125,0.07421875,0.034271240234375,3.0,2020-03-03 17:48:11.590000-06:00,2020-03-03 17:00
1583279291640.0,0.0,0.0,91.23424196243286,0.6798095703125,0.6595255534630269,0.27528890036046505,0.16455078125,0.07552099227905273,0.05338478088378906,0.04296875,0.026763916015625,3.0,2020-03-03 17:48:11.640000-06:00,2020-03-03 17:00
1583279291690.0,0.0,0.0,91.20340371131897,0.6800537109375,0.6594696044921875,0.2749481201171875,0.1643829345703125,-0.0224609375,-0.078125,-0.013671875,0.013492584228515625,3.0,2020-03-03 17:48:11.690000-06:00,2020-03-03 17:00
1583279291740.0,0.0,0.0,91.19624298810959,0.6800384521484375,0.659423828125,0.2749481201171875,0.164642333984375,-0.146484375,0.015625,-0.0078125,0.0228729248046875,3.0,2020-03-03 17:48:11.740000-06:00,2020-03-03 17:00
1583279291790.0,0.0,0.0,91.20138329267502,0.6800003051757812,0.659423828125,0.27506256103515625,0.1647186279296875,-0.1708984375,0.044921875,-0.037109375,0.0332489013671875,3.0,2020-03-03 17:48:11.790000-06:00,2020-03-03 17:00
1583279291840.0,0.0,0.0,91.174232006073,0.6801605224609375,0.6593170166015625,0.2748260498046875,0.1646728515625,0.0703125,0.0703125,0.04296875,0.0117340087890625,3.0,2020-03-03 17:48:11.840000-06:00,2020-03-03 17:00
1583279291890.0,0.0,0.0,91.11313772201538,0.6806640625,0.6590576171875,0.2745361328125,0.164306640625,0.041666507720947266,-0.015625,0.014322757720947266,0.020238161087036133,3.0,2020-03-03 17:48:11.890000-06:00,2020-03-03 17:00
1583279291940.0,0.0,0.0,91.06970071792603,0.6810150146484375,0.658843994140625,0.2743377685546875,0.163970947265625,-0.00390625,-0.119140625,-0.02734375,0.030120849609375,3.0,2020-03-03 17:48:11.940000-06:00,2020-03-03 17:00
1583279291990.0,0.0,0.0,91.07624644041061,0.6809448243584484,0.658935546875,0.27420654240995646,0.1640625,-0.029686927795410156,0.06875014305114746,0.03515625,0.01322329044342041,3.0,2020-03-03 17:48:11.990000-06:00,2020-03-03 17:00
1583279292040.0,0.0,0.0,91.09055149555206,0.6808624267578125,0.6588897705078125,0.274566650390625,0.1640625,-0.1103515625,0.041015625,0.046875,0.016826629638671875,3.0,2020-03-03 17:48:12.040000-06:00,2020-03-03 17:00
1583279292090.0,0.0,0.0,91.10765886306763,0.6807479858398438,0.6587753295898438,0.2751007080078125,0.1640625,-0.08349609375,0.0361328125,0.017578125,0.009035110473632812,3.0,2020-03-03 17:48:12.090000-06:00,2020-03-03 17:00
1583279292140.0,0.0,0.0,91.1365293264389,0.68048095703125,0.6587677001953125,0.2756195068359375,0.1644744873046875,0.046875,0.04296875,0.05859375,0.007476806640625,3.0,2020-03-03 17:48:12.140000-06:00,2020-03-03 17:00
1583279292190.0,0.0,0.0,91.16166615486145,0.680334473028779,0.6587036130949855,0.2761718747206032,0.16441650316119194,0.053124964237213135,0.04296875,0.04296875,0.006939701735973358,3.0,2020-03-03 17:48:12.190000-06:00,2020-03-03 17:00
1583279292240.0,0.0,0.0,91.18871372938156,0.6800659182481468,0.6587890626396984,0.27634277287870646,0.16472167940810323,0.04375004768371582,0.05703139305114746,0.022656232118606567,0.00651855394244194,3.0,2020-03-03 17:48:12.240000-06:00,2020-03-03 17:00
1583279292290.0,0.0,0.0,91.1813530921936,0.6800659177824855,0.6587036135606468,0.2764160158112645,0.16489257756620646,-0.015625,-0.02812480926513672,0.06171846389770508,0.02501535415649414,3.0,2020-03-03 17:48:12.290000-06:00,2020-03-03 17:00
1583279292340.0,0.0,0.0,91.168896317482,0.680084228515625,0.65869140625,0.276275634765625,0.165191650390625,-0.03515625,-0.109375,0.072265625,0.0440216064453125,3.0,2020-03-03 17:48:12.340000-06:00,2020-03-03 17:00
1583279292390.0,0.0,0.0,91.18861091136932,0.6798553466796875,0.658843994140625,0.2761993408203125,0.1655731201171875,0.033203125,0.0859375,-0.0302734375,0.0243377685546875,3.0,2020-03-03 17:48:12.390000-06:00,2020-03-03 17:00
1583279292440.0,0.0,0.0,91.23212146759033,0.679443359375,0.6590118408203125,0.2765350341796875,0.16619873046875,0.03125,-0.00390625,-0.0703125,0.0059356689453125,3.0,2020-03-03 17:48:12.440000-06:00,2020-03-03 17:00
1583279292490.0,0.0,0.0,91.2671434879303,0.67913818359375,0.6591064450331032,0.27681884728372097,0.16645507793873549,0.06093740463256836,0.02265620231628418,-0.03437519073486328,0.009725987911224365,3.0,2020-03-03 17:48:12.490000-06:00,2020-03-03 17:00
1583279292540.0,0.0,0.0,91.3126528263092,0.678808594122529,0.6592041014228016,0.2773071266710758,0.16661376925185323,0.08515620231628418,0.04843735694885254,-0.00703120231628418,0.011621057987213135,3.0,2020-03-03 17:48:12.540000-06:00,2020-03-03 17:00
1583279292590.0,0.0,0.0,91.36306595802307,0.678466796875,0.6593221025541425,0.27783203125,0.16670735669322312,0.015625,0.016927123069763184,-0.029947757720947266,0.005269363522529602,3.0,2020-03-03 17:48:12.590000-06:00,2020-03-03 17:00
1583279292640.0,0.0,0.0,91.4114453792572,0.67822265625,0.659423828125,0.27836913615465164,0.16646728664636612,0.0054683685302734375,-0.00234377384185791,-0.006250143051147461,0.01897573471069336,3.0,2020-03-03 17:48:12.640000-06:00,2020-03-03 17:00
1583279292690.0,0.0,0.0,91.45603442192078,0.6782989501953125,0.6590423583984375,0.279937744140625,0.1649322509765625,0.27734375,0.00390625,-0.046875,0.079132080078125,3.0,2020-03-03 17:48:12.690000-06:00,2020-03-03 17:00
1583279292740.0,0.0,0.0,91.5237283706665,0.6783325206488371,0.6586547850165516,0.28190917521715164,0.16301269829273224,0.16953086853027344,-0.06953144073486328,0.0015625953674316406,0.0626220703125,3.0,2020-03-03 17:48:12.740000-06:00,2020-03-03 17:00
1583279292790.0,0.0,0.0,91.78923988342285,0.67718505859375,0.6590820290148258,0.28496092557907104,0.16059570014476776,-0.02187490463256836,0.021875381469726562,0.08046871423721313,0.06975364685058594,3.0,2020-03-03 17:48:12.790000-06:00,2020-03-03 17:00
1583279292840.0,0.0,0.0,92.38178634643555,0.6743652373552322,0.6599609367549419,0.29185789823532104,0.15626221895217896,-0.0023441314697265625,0.3914060592651367,0.13671875,0.18811988830566406,3.0,2020-03-03 17:48:12.840000-06:00,2020-03-03 17:00
1583279292890.0,0.0,0.0,93.16796112060547,0.6706176698207855,0.6597167998552322,0.30388182401657104,0.15040284395217896,0.08906251192092896,0.3546886444091797,0.21171873807907104,0.2069854736328125,3.0,2020-03-03 17:48:12.890000-06:00,2020-03-03 17:00
1583279292940.0,0.0,0.0,93.7298994064331,0.667724609375,0.6565958559513092,0.3183390498161316,0.14703369140625,0.125,0.016925811767578125,0.1328125,0.08660376071929932,3.0,2020-03-03 17:48:12.940000-06:00,2020-03-03 17:00
1583279292990.0,0.0,0.0,94.00726127624512,0.6654510498046875,0.64849853515625,0.3378143310546875,0.149017333984375,0.0283203125,-0.3212890625,-0.037109375,0.2224273681640625,3.0,2020-03-03 17:48:12.990000-06:00,2020-03-03 17:00
1583279293040.0,0.0,0.0,94.09475898742676,0.66217041015625,0.62579345703125,0.3788330554962158,0.16043710708618164,-0.70703125,-0.4296875,-0.13593769073486328,0.7927742004394531,3.0,2020-03-03 17:48:13.040000-06:00,2020-03-03 17:00
1583279293090.0,0.0,0.0,93.1635971069336,0.6615966781973839,0.5963989496231079,0.4141113758087158,0.18558359146118164,-0.66796875,-0.4367179870605469,-0.3976564407348633,1.0155067443847656,3.0,2020-03-03 17:48:13.090000-06:00,2020-03-03 17:00
1583279293140.0,0.0,0.0,90.85174560546875,0.664660632610321,0.5627684593200684,0.43630367517471313,0.2242431640625,-0.1953125,-0.5687484741210938,-0.29843902587890625,0.5796012878417969,3.0,2020-03-03 17:48:13.140000-06:00,2020-03-03 17:00
1583279293190.0,0.0,0.0,87.90350341796875,0.6680786125361919,0.5348144173622131,0.44227296113967896,0.26751708984375,0.11952972412109375,-0.38671875,-0.36249542236328125,0.7583160400390625,3.0,2020-03-03 17:48:13.190000-06:00,2020-03-03 17:00
1583279293240.0,0.0,0.0,85.7995834350586,0.663281261920929,0.5250366209074855,0.43321532011032104,0.31003427505493164,0.39218902587890625,0.0070343017578125,-0.63671875,1.1593780517578125,3.0,2020-03-03 17:48:13.240000-06:00,2020-03-03 17:00
1583279293290.0,0.0,0.0,84.71013641357422,0.651806652545929,0.5242919921875,0.42308351397514343,0.3479369878768921,-0.13203048706054688,-0.3664093017578125,-1.1046905517578125,4.7392578125,3.0,2020-03-03 17:48:13.290000-06:00,2020-03-03 17:00
1583279293340.0,0.0,0.0,82.84535217285156,0.6590697765350342,0.51580810546875,0.41422122716903687,0.3572143316268921,0.14687347412109375,-0.52734375,-1.6281280517578125,8.08331298828125,3.0,2020-03-03 17:48:13.340000-06:00,2020-03-03 17:00
1583279293390.0,0.0,0.0,78.92703247070312,0.6952638626098633,0.49528801441192627,0.39814460277557373,0.33437514305114746,1.66015625,1.3210945129394531,-1.4328155517578125,10.28228759765625,3.0,2020-03-03 17:48:13.390000-06:00,2020-03-03 17:00
1583279293440.0,0.0,0.0,75.90287780761719,0.7285400629043579,0.4698241949081421,0.39643561840057373,0.3011963367462158,2.46875,0.6023445129394531,-2.7710952758789062,15.30419921875,3.0,2020-03-03 17:48:13.440000-06:00,2020-03-03 17:00
1583279293490.0,0.0,0.0,74.45321655273438,0.7406372129917145,0.44724124670028687,0.40732425451278687,0.29206550121307373,1.24609375,-0.466400146484375,-1.0789108276367188,5.16986083984375,3.0,2020-03-03 17:48:13.490000-06:00,2020-03-03 17:00
1583279293540.0,0.0,0.0,72.0801773071289,0.7426025420427322,0.4365234375,0.3943970203399658,0.31949472427368164,-0.0546875,-0.0398406982421875,-0.7062492370605469,2.987213134765625,3.0,2020-03-03 17:48:13.540000-06:00,2020-03-03 17:00
1583279293590.0,0.0,0.0,69.64080810546875,0.735095202922821,0.4369750916957855,0.36708974838256836,0.36417245864868164,-0.4382781982421875,0.618743896484375,-1.6828117370605469,6.2520904541015625,3.0,2020-03-03 17:48:13.590000-06:00,2020-03-03 17:00
1583279293640.0,0.0,0.0,67.52490997314453,0.7238403260707855,0.4423828125,0.3362792730331421,0.4087280035018921,-0.5640640258789062,-0.7765617370605469,-1.5304718017578125,5.2532958984375,3.0,2020-03-03 17:48:13.640000-06:00,2020-03-03 17:00
1583279293690.0,0.0,0.0,67.43973541259766,0.7090575695037842,0.45383310317993164,0.3193603754043579,0.4343017339706421,0.8562507629394531,0.2039031982421875,-0.88671875,2.2387847900390625,3.0,2020-03-03 17:48:13.690000-06:00,2020-03-03 17:00
1583279293740.0,0.0,0.0,67.54144287109375,0.6921752989292145,0.4598633050918579,0.3121337890625,0.4602295160293579,-0.1398468017578125,0.04062652587890625,-1.3445320129394531,5.4609832763671875,3.0,2020-03-03 17:48:13.740000-06:00,2020-03-03 17:00
1583279293790.0,0.0,0.0,67.0931396484375,0.6947021484375,0.42757582664489746,0.34720420837402344,0.4602295160293579,-2.1460933685302734,1.803131103515625,-0.16796875,22.80224609375,3.0,2020-03-03 17:48:13.790000-06:00,2020-03-03 17:00
1583279293840.0,0.0,0.0,70.509521484375,0.6872804164886475,0.4018920660018921,0.4136962890625,0.44023436307907104,-2.135936737060547,5.9765625,0.5101547241210938,41.3045654296875,3.0,2020-03-03 17:48:13.840000-06:00,2020-03-03 17:00
1583279293890.0,0.0,0.0,77.66012573242188,0.6464111804962158,0.4190673828125,0.46588134765625,0.4338134750723839,-0.3054656982421875,3.666412353515625,-0.27734375,22.16064453125,3.0,2020-03-03 17:48:13.890000-06:00,2020-03-03 17:00
1583279293940.0,0.0,0.0,80.88334655761719,0.6241576671600342,0.4200561046600342,0.494140625,0.43535156175494194,2.7156295776367188,0.03125,-0.06328105926513672,9.4654541015625,3.0,2020-03-03 17:48:13.940000-06:00,2020-03-03 17:00
1583279293990.0,0.0,0.0,77.191162109375,0.6524293422698975,0.3829467296600342,0.4918579161167145,0.42963868379592896,4.36328125,-2.0812454223632812,-0.265625,25.019287109375,3.0,2020-03-03 17:48:13.990000-06:00,2020-03-03 17:00
1583279294040.0,0.0,0.0,74.9157943725586,0.6787231415510178,0.34974364936351776,0.4974853992462158,0.4114745855331421,3.578887939453125,-1.728118896484375,-1.2421875,25.76904296875,3.0,2020-03-03 17:48:14.040000-06:00,2020-03-03 17:00
1583279294090.0,0.0,0.0,79.23806762695312,0.6552491188049316,0.35589599609375,0.5286376476287842,0.4035400152206421,-1.173431396484375,2.117950439453125,-1.8976564407348633,20.513671875,3.0,2020-03-03 17:48:14.090000-06:00,2020-03-03 17:00
1583279294140.0,0.0,0.0,86.50921630859375,0.5890016555786133,0.3846313953399658,0.5666991472244263,0.4264650344848633,-2.8976593017578125,2.9664306640625,-1.7320312857627869,28.923583984375,3.0,2020-03-03 17:48:14.140000-06:00,2020-03-03 17:00
1583279294190.0,0.0,0.0,92.39190673828125,0.5244872570037842,0.4095825196709484,0.5938720703125,0.4510131776332855,-0.8929672241210938,-0.3328125476837158,-1.3898429870605469,3.511077880859375,3.0,2020-03-03 17:48:14.190000-06:00,2020-03-03 17:00
1583279294240.0,0.0,0.0,94.69868469238281,0.49400634318590164,0.4071289002895355,0.612475574016571,0.46354973316192627,1.22186279296875,-1.3492279052734375,-1.515625,10.1961669921875,3.0,2020-03-03 17:48:14.240000-06:00,2020-03-03 17:00
1583279294290.0,0.0,0.0,92.51327514648438,0.49598388373851776,0.3897826671600342,0.6080077886581421,0.481689453125,3.3914031982421875,-3.15234375,-2.5328121185302734,28.07177734375,3.0,2020-03-03 17:48:14.290000-06:00,2020-03-03 17:00
1583279294340.0,0.0,0.0,91.34534645080566,0.4949096739292145,0.35174560546875,0.6224486827850342,0.49323731660842896,2.6015625,-2.3976593017578125,-2.5101547241210938,22.9212646484375,3.0,2020-03-03 17:48:14.340000-06:00,2020-03-03 17:00
1583279294390.0,0.0,0.0,90.65315246582031,0.49635010957717896,0.31494140625,0.637451171875,0.4978881776332855,1.3335952758789062,-0.24062347412109375,-2.3515625,8.328155517578125,3.0,2020-03-03 17:48:14.390000-06:00,2020-03-03 17:00
1583279294440.0,0.0,0.0,89.63227081298828,0.5057861357927322,0.29749755561351776,0.63897705078125,0.49738770723342896,2.8984375,0.41640472412109375,-2.49609375,15.5181884765625,3.0,2020-03-03 17:48:14.440000-06:00,2020-03-03 17:00
1583279294490.0,0.0,0.0,88.27310180664062,0.51214599609375,0.29754638671875,0.6295409202575684,0.5027221739292145,2.4375,0.6593780517578125,-2.75390625,17.54864501953125,3.0,2020-03-03 17:48:14.490000-06:00,2020-03-03 17:00
1583279294540.0,0.0,0.0,85.88603210449219,0.5288817882537842,0.30476075410842896,0.6091674566268921,0.5059692393988371,0.7671890258789062,0.5656280517578125,-2.815624237060547,10.221298217773438,3.0,2020-03-03 17:48:14.540000-06:00,2020-03-03 17:00
1583279294590.0,0.0,0.0,81.89617919921875,0.5601563453674316,0.29986572265625,0.5824950933456421,0.5061157271265984,2.6226654052734375,-0.5062494277954102,-2.4765625,14.96099853515625,3.0,2020-03-03 17:48:14.590000-06:00,2020-03-03 17:00
1583279294640.0,0.0,0.0,76.71987915039062,0.5934082269668579,0.29119873046875,0.5476441383361816,0.5123656988143921,2.744537353515625,0.36171722412109375,-2.1484375,16.3582763671875,3.0,2020-03-03 17:48:14.640000-06:00,2020-03-03 17:00
1583279294690.0,0.0,0.0,74.33555221557617,0.6002318859100342,0.31072998046875,0.5179687738418579,0.524096667766571,0.86328125,1.4945311546325684,-1.6546859741210938,5.896759033203125,3.0,2020-03-03 17:48:14.690000-06:00,2020-03-03 17:00
1583279294740.0,0.0,0.0,74.11803436279297,0.6092529296875,0.32783204317092896,0.5055786371231079,0.5147583484649658,-0.213287353515625,1.7937507629394531,-1.43359375,8.98052978515625,3.0,2020-03-03 17:48:14.740000-06:00,2020-03-03 17:00
1583279294790.0,0.0,0.0,72.52212524414062,0.6384644508361816,0.3454468250274658,0.4794189929962158,0.4923461824655533,-0.579681396484375,0.517181396484375,-1.3500003814697266,12.099990844726562,3.0,2020-03-03 17:48:14.790000-06:00,2020-03-03 17:00
1583279294840.0,0.0,0.0,70.2966079711914,0.6562988758087158,0.36976319551467896,0.4409301280975342,0.48756104707717896,0.69140625,0.619537353515625,-1.0593757629394531,15.807373046875,3.0,2020-03-03 17:48:14.840000-06:00,2020-03-03 17:00
1583279294890.0,0.0,0.0,69.29070472717285,0.6676147505640984,0.3871704339981079,0.41608887910842896,0.48072509467601776,-0.73828125,2.9148406982421875,-0.6960935592651367,14.6307373046875,3.0,2020-03-03 17:48:14.890000-06:00,2020-03-03 17:00
1583279294940.0,0.0,0.0,70.739990234375,0.6833128929138184,0.45902156829833984,0.33304500579833984,0.44235849380493164,-0.2437591552734375,1.2640609741210938,-0.4484367370605469,4.220367431640625,3.0,2020-03-03 17:48:14.940000-06:00,2020-03-03 17:00
1583279294990.0,0.0,0.0,73.1563720703125,0.7303102016448975,0.5692992210388184,0.11700439453125,0.32271766662597656,-2.034374237060547,1.6531219482421875,-1.7101593017578125,13.34197998046875,3.0,2020-03-03 17:48:14.990000-06:00,2020-03-03 17:00
1583279295040.0,0.0,0.0,74.455078125,0.7583740949630737,0.6035522818565369,-0.008056640625,0.24146723747253418,-2.7171859741210938,-3.8968505859375,-1.282806396484375,68.28955078125,3.0,2020-03-03 17:48:15.040000-06:00,2020-03-03 17:00
1583279295090.0,0.0,0.0,76.86433410644531,0.7353515625,0.61865234375,0.05694580078125,0.26958006620407104,-3.1859378814697266,-3.2977294921875,4.0289154052734375,129.896240234375,3.0,2020-03-03 17:48:15.090000-06:00,2020-03-03 17:00
1583279295140.0,0.0,0.0,78.85308074951172,0.7196167036890984,0.6294311881065369,0.08437502384185791,0.2805907726287842,-0.639068603515625,3.9320068359375,3.353912353515625,75.2900390625,3.0,2020-03-03 17:48:15.140000-06:00,2020-03-03 17:00
1583279295190.0,0.0,0.0,80.35549926757812,0.7049682140350342,0.6375000476837158,0.09783935546875,0.2939453125,2.0226593017578125,-1.92578125,-0.5999984741210938,9.75311279296875,3.0,2020-03-03 17:48:15.190000-06:00,2020-03-03 17:00
1583279295240.0,0.0,0.0,87.16107177734375,0.6607177257537842,0.67791748046875,0.12164306640625,0.29552001506090164,0.21640777587890625,1.09765625,1.2570343017578125,12.612548828125,3.0,2020-03-03 17:48:15.240000-06:00,2020-03-03 17:00
1583279295290.0,0.0,0.0,95.46658325195312,0.6022460460662842,0.7228882312774658,0.1561645269393921,0.29822999238967896,0.509368896484375,3.002349853515625,2.8718719482421875,22.62890625,3.0,2020-03-03 17:48:15.290000-06:00,2020-03-03 17:00
1583279295340.0,0.0,0.0,103.1475830078125,0.5350098609924316,0.7586791515350342,0.19263911247253418,0.31395256519317627,1.26171875,1.892974853515625,2.5335922241210938,14.948715209960938,3.0,2020-03-03 17:48:15.340000-06:00,2020-03-03 17:00
1583279295390.0,0.0,0.0,110.39544677734375,0.45900869369506836,0.7869505882263184,0.23308086395263672,0.3377441167831421,-0.02500152587890625,2.0179672241210938,3.140625,15.51055908203125,3.0,2020-03-03 17:48:15.390000-06:00,2020-03-03 17:00
1583279295440.0,0.0,0.0,116.45819091796875,0.405517578125,0.8114135265350342,0.2527099549770355,0.3355591297149658,0.7679710388183594,0.9664063453674316,3.3054685592651367,12.5775785446167,3.0,2020-03-03 17:48:15.440000-06:00,2020-03-03 17:00
1583279295490.0,0.0,0.0,121.19480895996094,0.38812255859375,0.8347533941268921,0.24912109971046448,0.30023193359375,0.4640617370605469,0.30547332763671875,2.5242156982421875,8.61981201171875,3.0,2020-03-03 17:48:15.490000-06:00,2020-03-03 17:00
1583279295540.0,0.0,0.0,123.31260681152344,0.3828125,0.8419677689671516,0.2559814453125,0.2806640863418579,0.76171875,-0.5320281982421875,0.796875,1.8761138916015625,3.0,2020-03-03 17:48:15.540000-06:00,2020-03-03 17:00
1583279295590.0,0.0,0.0,124.18919801712036,0.36795657873153687,0.8388427793979645,0.27783203125,0.28907471895217896,0.7390632629394531,0.3703155517578125,-0.25937652587890625,1.5069732666015625,3.0,2020-03-03 17:48:15.590000-06:00,2020-03-03 17:00
1583279295640.0,0.0,0.0,124.26356327533722,0.35546875,0.8320190608501434,0.29852294921875,0.30335694551467896,0.6117191314697266,1.3796882629394531,-0.3585968017578125,2.945465087890625,3.0,2020-03-03 17:48:15.640000-06:00,2020-03-03 17:00
1583279295690.0,0.0,0.0,124.26908254623413,0.3426269292831421,0.8251586854457855,0.3171752691268921,0.31782227754592896,0.7796878814697266,1.56640625,0.4109377861022949,3.2671051025390625,3.0,2020-03-03 17:48:15.690000-06:00,2020-03-03 17:00
1583279295740.0,0.0,0.0,123.98407745361328,0.33225101232528687,0.8182616829872131,0.33140867948532104,0.3316771984100342,0.5765628814697266,1.12109375,0.11093902587890625,1.8016128540039062,3.0,2020-03-03 17:48:15.740000-06:00,2020-03-03 17:00
1583279295790.0,0.0,0.0,122.70669555664062,0.3182617425918579,0.8061157464981079,0.3466552495956421,0.3579590320587158,0.5999984741210938,0.7921876907348633,-0.2710937261581421,1.0920372009277344,3.0,2020-03-03 17:48:15.790000-06:00,2020-03-03 17:00
1583279295840.0,0.0,0.0,120.41482543945312,0.2966430187225342,0.78924560546875,0.3606688976287842,0.3979613780975342,0.9234371185302734,0.8914061784744263,0.37734222412109375,2.47235107421875,3.0,2020-03-03 17:48:15.840000-06:00,2020-03-03 17:00
1583279295890.0,0.0,0.0,120.6920166015625,0.26143789291381836,0.785021960735321,0.37242430448532104,0.4195556640625,1.3351554870605469,0.6164054870605469,0.2351531982421875,4.3567047119140625,3.0,2020-03-03 17:48:15.890000-06:00,2020-03-03 17:00
1583279295940.0,0.0,0.0,122.39375305175781,0.22502446174621582,0.7900635004043579,0.3789428770542145,0.42578125,0.4460906982421875,0.017969131469726562,-1.8546867370605469,6.139434814453125,3.0,2020-03-03 17:48:15.940000-06:00,2020-03-03 17:00
1583279295990.0,0.0,0.0,120.72758865356445,0.2159423828125,0.783911133185029,0.37541502714157104,0.44483643770217896,-0.5539093017578125,0.4109344482421875,-2.66796875,9.311264038085938,3.0,2020-03-03 17:48:15.990000-06:00,2020-03-03 17:00
1583279296040.0,0.0,0.0,120.43452835083008,0.21827392280101776,0.785400390625,0.36932373046875,0.4461669921875,-0.2921905517578125,0.96484375,-2.600780487060547,9.735000610351562,3.0,2020-03-03 17:48:16.040000-06:00,2020-03-03 17:00
1583279296090.0,0.0,0.0,120.87016105651855,0.22423094511032104,0.789794921875,0.36436766386032104,0.439453125,-0.7890625,0.82421875,-1.6101570129394531,5.842620849609375,3.0,2020-03-03 17:48:16.090000-06:00,2020-03-03 17:00
1583279296140.0,0.0,0.0,120.98701667785645,0.24376225471496582,0.79278564453125,0.3590331971645355,0.42766112089157104,0.7249999046325684,1.5343751907348633,-1.20703125,4.371299743652344,3.0,2020-03-03 17:48:16.140000-06:00,2020-03-03 17:00
1583279296190.0,0.0,0.0,122.05630493164062,0.26611328125,0.7994018197059631,0.3552001975476742,0.4044189453125,0.8093752861022949,1.0914077758789062,-1.0414047241210938,3.5290985107421875,3.0,2020-03-03 17:48:16.190000-06:00,2020-03-03 17:00
1583279296240.0,0.0,0.0,125.25372314453125,0.28623056411743164,0.8170288801193237,0.34755849838256836,0.3583984375,0.5062484741210938,0.6507797241210938,-0.2625007629394531,1.1487092971801758,3.0,2020-03-03 17:48:16.240000-06:00,2020-03-03 17:00
1583279296290.0,0.0,0.0,127.73905181884766,0.3128296136856079,0.83404541015625,0.33214110136032104,0.3095703125,0.03203105926513672,0.8023452758789062,0.2976570129394531,0.9819450378417969,3.0,2020-03-03 17:48:16.290000-06:00,2020-03-03 17:00
1583279296340.0,0.0,0.0,126.853759765625,0.34393310546875,0.8401245027780533,0.3054323196411133,0.2851196527481079,0.7945327758789062,0.8609390258789062,-0.6984405517578125,5.79266357421875,3.0,2020-03-03 17:48:16.340000-06:00,2020-03-03 17:00
1583279296390.0,0.0,0.0,121.57379150390625,0.40057373046875,0.8351684212684631,0.25087881088256836,0.2780395522713661,1.4085922241210938,0.9835968017578125,-1.510162353515625,8.47991943359375,3.0,2020-03-03 17:48:16.390000-06:00,2020-03-03 17:00
1583279296440.0,0.0,0.0,113.26470947265625,0.4562866687774658,0.8108644485473633,0.19503188133239746,0.3055539131164551,0.5085945129394531,0.43515777587890625,0.3312499523162842,1.0313911437988281,3.0,2020-03-03 17:48:16.440000-06:00,2020-03-03 17:00
1583279296490.0,0.0,0.0,104.57489013671875,0.4904419183731079,0.7713378667831421,0.1746826171875,0.36505126953125,0.5476570129394531,0.735931396484375,-0.9429779052734375,4.79815673828125,3.0,2020-03-03 17:48:16.490000-06:00,2020-03-03 17:00
1583279296540.0,0.0,0.0,101.90852558612823,0.4993896484375,0.7539917007088661,0.18620604276657104,0.3838135004043579,1.210155963897705,-1.2679595947265625,-0.692962646484375,13.361328125,3.0,2020-03-03 17:48:16.540000-06:00,2020-03-03 17:00
1583279296590.0,0.0,0.0,104.4857177734375,0.5071533173322678,0.7677001953125,0.1876220703125,0.3412351608276367,1.2054681777954102,-0.29998779296875,4.329681396484375,37.97802734375,3.0,2020-03-03 17:48:16.590000-06:00,2020-03-03 17:00
1583279296640.0,0.0,0.0,112.7867431640625,0.49688720703125,0.813720703125,0.17156982421875,0.23420429229736328,0.9992198944091797,2.861724853515625,5.7140655517578125,46.572998046875,3.0,2020-03-03 17:48:16.640000-06:00,2020-03-03 17:00
1583279296690.0,0.0,0.0,122.47589111328125,0.46807861328125,0.8656980991363525,0.13272690773010254,0.07883262634277344,-0.2054595947265625,-0.31640625,2.3671875,13.0899658203125,3.0,2020-03-03 17:48:16.690000-06:00,2020-03-03 17:00
1583279296740.0,0.0,0.0,125.0625,0.45103758573532104,0.883166491985321,0.07429170608520508,-0.07270526885986328,-0.661712646484375,-1.0070343017578125,-3.334381103515625,34.36669921875,3.0,2020-03-03 17:48:16.740000-06:00,2020-03-03 17:00
1583279296790.0,0.0,0.0,120.34249877929688,0.4660888910293579,0.8670775890350342,0.01385498046875,-0.17233896255493164,1.015625,0.27655792236328125,-3.61798095703125,50.545166015625,3.0,2020-03-03 17:48:16.790000-06:00,2020-03-03 17:00
1583279296840.0,0.0,0.0,117.31521224975586,0.47364503145217896,0.8540527373552322,-0.002734363079071045,-0.2144531011581421,1.6359329223632812,0.15000152587890625,2.65234375,12.532562255859375,3.0,2020-03-03 17:48:16.840000-06:00,2020-03-03 17:00
1583279296890.0,0.0,0.0,117.40218353271484,0.4670166075229645,0.854321300983429,0.01185309886932373,-0.22749024629592896,4.088287353515625,2.0140609741210938,1.8609390258789062,30.49755859375,3.0,2020-03-03 17:48:16.890000-06:00,2020-03-03 17:00
1583279296940.0,0.0,0.0,118.46443557739258,0.4712035655975342,0.8583984375,0.03554689884185791,-0.1971435546875,3.869537353515625,2.243743896484375,2.630462646484375,39.982666015625,3.0,2020-03-03 17:48:16.940000-06:00,2020-03-03 17:00
1583279296990.0,0.0,0.0,119.26566314697266,0.4819091798271984,0.8600097745656967,0.06718754768371582,-0.1521240472793579,0.4617156982421875,1.0093765258789062,2.4859390258789062,8.69696044921875,3.0,2020-03-03 17:48:16.990000-06:00,2020-03-03 17:00
1583279297040.0,0.0,0.0,120.37186050415039,0.4814819358289242,0.8611572273075581,0.10391831398010254,-0.12313234806060791,2.1656265258789062,1.4125003814697266,2.716400146484375,15.344400025904179,3.0,2020-03-03 17:48:17.040000-06:00,2020-03-03 17:00
1583279297090.0,0.0,0.0,120.48594665527344,0.48717039823532104,0.856921374797821,0.1383422613143921,-0.09333491325378418,2.6968765258789062,0.8359375,1.9773445129394531,12.52008056640625,3.0,2020-03-03 17:48:17.090000-06:00,2020-03-03 17:00
1583279297140.0,0.0,0.0,119.6232738494873,0.4989990293979645,0.847729504108429,0.16791987419128418,-0.05909419059753418,1.7078132629394531,-0.42578125,2.1656248569488525,8.647377014160156,3.0,2020-03-03 17:48:17.140000-06:00,2020-03-03 17:00
1583279297190.0,0.0,0.0,120.83782958984375,0.4921020269393921,0.8468261957168579,0.1973876953125,-0.03847655653953552,1.91796875,-0.42889404296875,2.1320314407348633,10.575180053710938,3.0,2020-03-03 17:48:17.190000-06:00,2020-03-03 17:00
1583279297240.0,0.0,0.0,123.63023376464844,0.4700927734375,0.8535034134984016,0.21973872184753418,-0.04543459415435791,1.9789047241210938,0.9921875,1.9007797241210938,9.285400390625,3.0,2020-03-03 17:48:17.240000-06:00,2020-03-03 17:00
1583279297290.0,0.0,0.0,125.27836608886719,0.45587158203125,0.85443115234375,0.2420654296875,-0.05753171443939209,1.7085952758789062,0.6085939407348633,1.6343750953674316,6.763214111328125,3.0,2020-03-03 17:48:17.290000-06:00,2020-03-03 17:00
1583279297340.0,0.0,0.0,125.78277969360352,0.4499145448207855,0.849987804889679,0.2640380859375,-0.07210695743560791,2.91796875,0.21640777587890625,1.7109375,11.705856323242188,3.0,2020-03-03 17:48:17.340000-06:00,2020-03-03 17:00
1583279297390.0,0.0,0.0,125.86245727539062,0.44708251953125,0.8448486328125,0.2812744081020355,-0.0843505859375,2.4031219482421875,-0.7375030517578125,1.359375,9.72021484375,3.0,2020-03-03 17:48:17.390000-06:00,2020-03-03 17:00
1583279297440.0,0.0,0.0,126.5206036567688,0.4399536121636629,0.8462402345612645,0.2853637710213661,-0.09425048530101776,0.8937530517578125,-0.9226608276367188,0.8773422241210938,3.383880615234375,3.0,2020-03-03 17:48:17.440000-06:00,2020-03-03 17:00
1583279297490.0,0.0,0.0,126.38329410552979,0.44034423772245646,0.8459350597113371,0.28460693359375,-0.09754636883735657,-0.10390472412109375,-0.375,1.3960933685302734,2.3050537109375,3.0,2020-03-03 17:48:17.490000-06:00,2020-03-03 17:00
1583279297540.0,0.0,0.0,126.4392261505127,0.43902587890625,0.84698486328125,0.28211668133735657,-0.10133056342601776,-0.00702667236328125,0.2375030517578125,1.6296882629394531,4.6400146484375,3.0,2020-03-03 17:48:17.540000-06:00,2020-03-03 17:00
1583279297590.0,0.0,0.0,126.87093544006348,0.43499755859375,0.8502441346645355,0.27763672173023224,-0.10374754667282104,0.5054702758789062,0.8890609741210938,1.9195289611816406,5.79412841796875,3.0,2020-03-03 17:48:17.590000-06:00,2020-03-03 17:00
1583279297640.0,0.0,0.0,127.3680248260498,0.43159179389476776,0.8548217713832855,0.26959228515625,-0.10120850801467896,0.5203094482421875,-0.3078126907348633,1.5703125,3.1193923950195312,3.0,2020-03-03 17:48:17.640000-06:00,2020-03-03 17:00
1583279297690.0,0.0,0.0,127.92724609375,0.42872315645217896,0.8602050840854645,0.25953368842601776,-0.09409180283546448,1.1171875,-0.5632820129394531,1.8312492370605469,5.068206787109375,3.0,2020-03-03 17:48:17.690000-06:00,2020-03-03 17:00
1583279297740.0,0.0,0.0,128.51935195922852,0.42438964545726776,0.8628173843026161,0.25871581584215164,-0.09222412109375,0.6148414611816406,-0.11484527587890625,2.1257810592651367,5.927520751953125,3.0,2020-03-03 17:48:17.740000-06:00,2020-03-03 17:00
1583279297790.0,0.0,0.0,128.77758169174194,0.42226562462747097,0.862548828125,0.2629638910293579,-0.09248046576976776,0.49062347412109375,0.34375,1.6273422241210938,4.107414245605469,3.0,2020-03-03 17:48:17.790000-06:00,2020-03-03 17:00
1583279297840.0,0.0,0.0,128.86986351013184,0.42155762016773224,0.8609619140625,0.26927490532398224,-0.09219969809055328,1.3078126907348633,-0.203125,1.1773433685302734,3.3295555114746094,3.0,2020-03-03 17:48:17.840000-06:00,2020-03-03 17:00
1583279297890.0,0.0,0.0,129.17742252349854,0.4201904295478016,0.8612060546875,0.2723388671875,-0.08688965439796448,1.08203125,0.5546875,1.1593761444091797,3.08544921875,3.0,2020-03-03 17:48:17.890000-06:00,2020-03-03 17:00
1583279297940.0,0.0,0.0,129.33724880218506,0.4208129867911339,0.8619262725114822,0.27203369140625,-0.07692867517471313,0.9070320129394531,0.3601531982421875,0.9265625476837158,2.408161163330078,3.0,2020-03-03 17:48:17.940000-06:00,2020-03-03 17:00
1583279297990.0,0.0,0.0,129.12208938598633,0.42510986328125,0.8633789056912065,0.26459962129592896,-0.06043696403503418,0.9476585388183594,-0.3984375,0.6351547241210938,1.8043060302734375,3.0,2020-03-03 17:48:17.990000-06:00,2020-03-03 17:00
1583279298040.0,0.0,0.0,128.823335647583,0.42967529594898224,0.8641845732927322,0.25812988728284836,-0.0433349609375,0.5679702758789062,-0.43906211853027344,0.49843597412109375,0.9608154296875,3.0,2020-03-03 17:48:18.040000-06:00,2020-03-03 17:00
1583279298090.0,0.0,0.0,129.27880096435547,0.4272705167531967,0.867053210735321,0.2544189393520355,-0.02734375,0.7515621185302734,-0.28672027587890625,1.2218742370605469,2.5965499877929688,3.0,2020-03-03 17:48:18.090000-06:00,2020-03-03 17:00
1583279298140.0,0.0,0.0,128.76278686523438,0.4321044683456421,0.8687255829572678,0.24117422103881836,-0.0017944574356079102,0.375,-0.1171875,1.2203140258789062,2.38336181640625,3.0,2020-03-03 17:48:18.140000-06:00,2020-03-03 17:00
1583279298190.0,0.0,0.0,125.313232421875,0.4578125476837158,0.861682116985321,0.21429443359375,0.031005859375,0.15781235694885254,-0.5460929870605469,0.46328067779541016,0.5991687774658203,3.0,2020-03-03 17:48:18.190000-06:00,2020-03-03 17:00
1583279298240.0,0.0,0.0,120.48277282714844,0.4913574457168579,0.84808349609375,0.18452155590057373,0.06809091567993164,0.20703125,-0.21250009536743164,0.3187522888183594,0.2770233154296875,3.0,2020-03-03 17:48:18.240000-06:00,2020-03-03 17:00
1583279298290.0,0.0,0.0,116.378173828125,0.5175293684005737,0.8330932259559631,0.16702881455421448,0.09913325309753418,0.09999847412109375,0.17265701293945312,0.19297027587890625,0.3363456726074219,3.0,2020-03-03 17:48:18.290000-06:00,2020-03-03 17:00
1583279298340.0,0.0,0.0,112.8778076171875,0.5403563976287842,0.8160400390625,0.1680542230606079,0.11643067002296448,0.12890625,0.4375,0.4757814407348633,0.5944042205810547,3.0,2020-03-03 17:48:18.340000-06:00,2020-03-03 17:00
1583279298390.0,0.0,0.0,110.22164916992188,0.5588744878768921,0.799914538860321,0.18126219511032104,0.12161865830421448,0.45937538146972656,0.44140625,0.26328086853027344,0.6535491943359375,3.0,2020-03-03 17:48:18.390000-06:00,2020-03-03 17:00
1583279298440.0,0.0,0.0,108.00247192382812,0.5730224847793579,0.7859740853309631,0.1914917230606079,0.1306518316268921,0.5101556777954102,0.9468748569488525,0.4921875,1.6721878051757812,3.0,2020-03-03 17:48:18.440000-06:00,2020-03-03 17:00
1583279298490.0,0.0,0.0,105.49130249023438,0.587890625,0.7697875499725342,0.2020019292831421,0.14398193359375,0.47890663146972656,0.5390625,1.1351561546325684,2.155975341796875,3.0,2020-03-03 17:48:18.490000-06:00,2020-03-03 17:00
1583279298540.0,0.0,0.0,102.60371398925781,0.603527843952179,0.7512694597244263,0.21109619736671448,0.1628051996231079,0.20703125,-0.2648448944091797,1.1148438453674316,1.3878326416015625,3.0,2020-03-03 17:48:18.540000-06:00,2020-03-03 17:00
1583279298590.0,0.0,0.0,100.08622741699219,0.6139770448207855,0.736193835735321,0.2135009765625,0.18787837028503418,0.13671875,-0.4781249761581421,0.4367218017578125,0.982757568359375,3.0,2020-03-03 17:48:18.590000-06:00,2020-03-03 17:00
1583279298640.0,0.0,0.0,98.90620040893555,0.6108154058456421,0.7298217862844467,0.21163330227136612,0.22156977653503418,0.037499964237213135,-0.7531242370605469,-0.10781097412109375,0.8694648742675781,3.0,2020-03-03 17:48:18.640000-06:00,2020-03-03 17:00
1583279298690.0,0.0,0.0,100.44924926757812,0.57794189453125,0.7328857183456421,0.23001718521118164,0.27097177505493164,-0.02812480926513672,-0.78515625,0.2843761444091797,0.92864990234375,3.0,2020-03-03 17:48:18.690000-06:00,2020-03-03 17:00
1583279298740.0,0.0,0.0,104.39768981933594,0.5399047806859016,0.7341552972793579,0.28957557678222656,0.28924560546875,0.08437728881835938,1.1007843017578125,-0.7437515258789062,5.582275390625,3.0,2020-03-03 17:48:18.740000-06:00,2020-03-03 17:00
1583279298790.0,0.0,0.0,107.62997436523438,0.53118896484375,0.72747802734375,0.34895825386047363,0.25750732421875,0.7408866882324219,3.7161483764648438,-3.86590576171875,37.3544921875,3.0,2020-03-03 17:48:18.790000-06:00,2020-03-03 17:00
1583279298840.0,0.0,0.0,110.65732192993164,0.5065765380859375,0.73199462890625,0.3749237060546875,0.25848388671875,0.85546875,3.544921875,-5.994140625,63.78125,3.0,2020-03-03 17:48:18.840000-06:00,2020-03-03 17:00
1583279298890.0,0.0,0.0,109.19631958007812,0.4995361566543579,0.730236828327179,0.3616088628768921,0.2928345203399658,-0.3757820129394531,-0.06406402587890625,-1.1085929870605469,1.8916381895542145,3.0,2020-03-03 17:48:18.890000-06:00,2020-03-03 17:00
1583279298940.0,0.0,0.0,102.22296142578125,0.5402340888977051,0.70501708984375,0.32806396484375,0.3183227479457855,0.11406254768371582,0.3203125,-1.9210968017578125,4.73309326171875,3.0,2020-03-03 17:48:18.940000-06:00,2020-03-03 17:00
1583279298990.0,0.0,0.0,92.44476318359375,0.6161375045776367,0.6670167446136475,0.2735595703125,0.3122069835662842,0.3406257629394531,0.515625,-2.40625,7.493194580078125,3.0,2020-03-03 17:48:18.990000-06:00,2020-03-03 17:00
1583279299040.0,0.0,0.0,86.03463745117188,0.6664672791957855,0.649340808391571,0.20726323127746582,0.3006347417831421,0.75390625,0.56561279296875,-2.58203125,10.66943359375,3.0,2020-03-03 17:48:19.040000-06:00,2020-03-03 17:00
1583279299090.0,0.0,0.0,85.93360900878906,0.66009521484375,0.6639038324356079,0.15158677101135254,0.315185546875,0.5695304870605469,-0.22812652587890625,-2.6296844482421875,11.5931396484375,3.0,2020-03-03 17:48:19.090000-06:00,2020-03-03 17:00
1583279299140.0,0.0,0.0,88.189453125,0.6328369379043579,0.6866943836212158,0.11138916015625,0.33916014432907104,0.11015510559082031,0.7328119277954102,-0.328125,0.6805448532104492,3.0,2020-03-03 17:48:19.140000-06:00,2020-03-03 17:00
1583279299190.0,0.0,0.0,90.12235641479492,0.6113525629043579,0.7009643465280533,0.09854736179113388,0.35372310876846313,0.5382843017578125,1.328125,0.1750030517578125,3.691375732421875,3.0,2020-03-03 17:48:19.190000-06:00,2020-03-03 17:00
1583279299240.0,0.0,0.0,91.1701431274414,0.596435546875,0.708239734172821,0.092041015625,0.36591798067092896,1.3679695129394531,1.29296875,-0.1437530517578125,6.9671783447265625,3.0,2020-03-03 17:48:19.240000-06:00,2020-03-03 17:00
1583279299290.0,0.0,0.0,92.14077386260033,0.5860961973667145,0.7160278297960758,0.0772705078125,0.3712158203125,0.9476585388183594,0.0078125,-2.0210952758789062,5.37762451171875,3.0,2020-03-03 17:48:19.290000-06:00,2020-03-03 17:00
1583279299340.0,0.0,0.0,91.54031372070312,0.5976318120956421,0.713757336139679,0.06218266487121582,0.3595092296600342,0.8507804870605469,0.75,-2.073436737060547,6.123208999633789,3.0,2020-03-03 17:48:19.340000-06:00,2020-03-03 17:00
1583279299390.0,0.0,0.0,89.96283721923828,0.6220947504043579,0.7057861685752869,0.03762209415435791,0.3360229730606079,1.6015625,0.8765640258789062,-1.7601566314697266,6.6939849853515625,3.0,2020-03-03 17:48:19.390000-06:00,2020-03-03 17:00
1583279299440.0,0.0,0.0,88.18345642089844,0.65252685546875,0.6955199837684631,0.009130716323852539,0.29886484146118164,2.004688262939453,0.3234376907348633,-1.4382781982421875,6.838775634765625,3.0,2020-03-03 17:48:19.440000-06:00,2020-03-03 17:00
1583279299490.0,0.0,0.0,86.32591247558594,0.6826050281524658,0.68365478515625,-0.02067875862121582,0.25601792335510254,2.04296875,-0.27655792236328125,-0.6468753814697266,5.113180160522461,3.0,2020-03-03 17:48:19.490000-06:00,2020-03-03 17:00
1583279299540.0,0.0,0.0,84.19601440429688,0.70892333984375,0.6686767339706421,-0.04508054256439209,0.21791982650756836,1.2406234741210938,-0.546875,0.1218719482421875,4.135337829589844,3.0,2020-03-03 17:48:19.540000-06:00,2020-03-03 17:00
1583279299590.0,0.0,0.0,81.75213623046875,0.7326415777206421,0.6497436761856079,-0.07579350471496582,0.186279296875,0.47265625,0.33828163146972656,1.8093757629394531,3.7121658325195312,3.0,2020-03-03 17:48:19.590000-06:00,2020-03-03 17:00
1583279299640.0,0.0,0.0,80.34234046936035,0.7462971806526184,0.6357828676700592,-0.1077880859375,0.16371655464172363,0.29296875,1.078125,2.1953125,6.6091156005859375,3.0,2020-03-03 17:48:19.640000-06:00,2020-03-03 17:00
1583279299690.0,0.0,0.0,79.96635913848877,0.7519378662109375,0.62811279296875,-0.1352691650390625,0.1472930908203125,-0.0322265625,1.634765625,2.36328125,8.686767578125,3.0,2020-03-03 17:48:19.690000-06:00,2020-03-03 17:00
1583279299740.0,0.0,0.0,80.1880989074707,0.7518188655376434,0.6251464933156967,-0.1547485589981079,0.14133301004767418,0.20624923706054688,0.7234382629394531,1.9375,4.397453308105469,3.0,2020-03-03 17:48:19.740000-06:00,2020-03-03 17:00
1583279299790.0,0.0,0.0,80.55228233337402,0.7504028379917145,0.624438464641571,-0.16732174158096313,0.1377319097518921,0.38515472412109375,1.1695289611816406,2.3257827758789062,7.7928466796875,3.0,2020-03-03 17:48:19.790000-06:00,2020-03-03 17:00
1583279299840.0,0.0,0.0,80.55199813842773,0.7521728537976742,0.624499499797821,-0.1669067144393921,0.127685546875,1.0070312023162842,1.6929683685302734,2.874217987060547,12.327056884765625,3.0,2020-03-03 17:48:19.840000-06:00,2020-03-03 17:00
1583279299890.0,0.0,0.0,80.68006134033203,0.7531005889177322,0.6261962950229645,-0.16376948356628418,0.117431640625,0.5406265258789062,2.375,3.1453094482421875,17.4991455078125,3.0,2020-03-03 17:48:19.890000-06:00,2020-03-03 17:00
1583279299940.0,0.0,0.0,79.63921356201172,0.7596191763877869,0.61676025390625,-0.17220458388328552,0.11339110136032104,-0.9640655517578125,1.4640655517578125,2.060150146484375,19.936767578125,3.0,2020-03-03 17:48:19.940000-06:00,2020-03-03 17:00
1583279299990.0,0.0,0.0,78.01678466796875,0.7676025331020355,0.6065673828125,-0.16802978515625,0.12059324979782104,-1.6320266723632812,-0.0453033447265625,-0.86328125,5.5536956787109375,3.0,2020-03-03 17:48:19.990000-06:00,2020-03-03 17:00
1583279300040.0,0.0,0.0,77.29345703125,0.7701904289424419,0.600048840045929,-0.17288821935653687,0.12947997450828552,-0.25547027587890625,1.7179679870605469,0.6648406982421875,5.421844482421875,3.0,2020-03-03 17:48:20.040000-06:00,2020-03-03 17:00
1583279300090.0,0.0,0.0,76.9477481842041,0.77130126953125,0.5948242098093033,-0.18238525092601776,0.13421630859375,1.0343742370605469,1.1429595947265625,1.7367210388183594,6.861480712890625,3.0,2020-03-03 17:48:20.090000-06:00,2020-03-03 17:00
1583279300140.0,0.0,0.0,76.29085540771484,0.7747070491313934,0.5901733338832855,-0.18220216035842896,0.13535156287252903,1.3984375,-0.20234394073486328,1.1437492370605469,3.3945465087890625,3.0,2020-03-03 17:48:20.140000-06:00,2020-03-03 17:00
1583279300190.0,0.0,0.0,75.346435546875,0.779919445514679,0.5827392935752869,-0.18413084745407104,0.13496093824505806,1.1476593017578125,0.0625,1.1117172241210938,2.872997283935547,3.0,2020-03-03 17:48:20.190000-06:00,2020-03-03 17:00
1583279300240.0,0.0,0.0,74.61663246154785,0.7840087860822678,0.5749023258686066,-0.19189453125,0.13399658352136612,0.74609375,0.4734382629394531,1.6031249910593033,3.3761329650878906,3.0,2020-03-03 17:48:20.240000-06:00,2020-03-03 17:00
1583279300290.0,0.0,0.0,74.23553657531738,0.7861694321036339,0.5700317323207855,-0.19801026582717896,0.13332519307732582,0.546875,0.7476558685302734,1.4445323944091797,3.04583740234375,3.0,2020-03-03 17:48:20.290000-06:00,2020-03-03 17:00
1583279300340.0,0.0,0.0,73.88990211486816,0.78765869140625,0.565258800983429,-0.20424804091453552,0.1353759765625,0.2671874910593033,0.640625,1.2796878814697266,2.2051820755004883,3.0,2020-03-03 17:48:20.340000-06:00,2020-03-03 17:00
1583279300390.0,0.0,0.0,73.5842056274414,0.7889160141348839,0.5616210959851742,-0.20798340439796448,0.137451171875,0.28515625,0.47421836853027344,1.20703125,1.8613433837890625,3.0,2020-03-03 17:48:20.390000-06:00,2020-03-03 17:00
1583279300440.0,0.0,0.0,73.47770571708679,0.7898925766348839,0.5621459931135178,-0.20438233017921448,0.13507080078125,0.86328125,0.5406246185302734,0.8757815361022949,2.3260955810546875,3.0,2020-03-03 17:48:20.440000-06:00,2020-03-03 17:00
1583279300490.0,0.0,0.0,73.53014278411865,0.7906372067518532,0.565319836139679,-0.19659423828125,0.12904053926467896,1.4624977111816406,0.3312501907348633,0.98828125,3.369272232055664,3.0,2020-03-03 17:48:20.490000-06:00,2020-03-03 17:00
1583279300540.0,0.0,0.0,73.58921766281128,0.79107666015625,0.569091796875,-0.1866699457168579,0.12435302883386612,0.83984375,0.28750038146972656,1.5054664611816406,3.291229248046875,3.0,2020-03-03 17:48:20.540000-06:00,2020-03-03 17:00
1583279300590.0,0.0,0.0,73.5318706035614,0.7916503904853016,0.5727172791957855,-0.17369383573532104,0.12249755859375,0.27187538146972656,0.24062538146972656,1.5765647888183594,2.8356399536132812,3.0,2020-03-03 17:48:20.590000-06:00,2020-03-03 17:00
1583279300640.0,0.0,0.0,73.61711263656616,0.7912963889539242,0.5791992545127869,-0.15240478515625,0.12183837592601776,0.2257823944091797,0.3757820129394531,1.1945314407348633,1.7181978225708008,3.0,2020-03-03 17:48:20.640000-06:00,2020-03-03 17:00
1583279300690.0,0.0,0.0,73.80049419403076,0.7887817323207855,0.5879638195037842,-0.12044668197631836,0.13117671012878418,-0.16796875,0.5578117370605469,0.8234405517578125,2.274394989013672,3.0,2020-03-03 17:48:20.690000-06:00,2020-03-03 17:00
1583279300740.0,0.0,0.0,74.00495862960815,0.7839762568473816,0.5948486328125,-0.0906982421875,0.15177404880523682,-1.0989580154418945,1.30859375,0.4986991882324219,3.41876220703125,3.0,2020-03-03 17:48:20.740000-06:00,2020-03-03 17:00
1583279300790.0,0.0,0.0,74.31465148925781,0.77764892578125,0.6005401611328125,-0.062347412109375,0.1741790771484375,-0.76953125,1.40625,1.1064453125,3.90325927734375,3.0,2020-03-03 17:48:20.790000-06:00,2020-03-03 17:00
1583279300840.0,0.0,0.0,75.33380889892578,0.7655436396598816,0.6104329526424408,-0.017781496047973633,0.20076489448547363,-0.29947924613952637,1.79296875,0.7578125,4.956817626953125,3.0,2020-03-03 17:48:20.840000-06:00,2020-03-03 17:00
1583279300890.0,0.0,0.0,76.6788330078125,0.75128173828125,0.6191558837890625,0.0276031494140625,0.225006103515625,-0.25390625,3.1962890625,0.30859375,10.379375457763672,3.0,2020-03-03 17:48:20.890000-06:00,2020-03-03 17:00
1583279300940.0,0.0,0.0,80.10281372070312,0.7252686023712158,0.6366332769393921,0.09071040153503418,0.2442626953125,-0.23750019073486328,3.221874713897705,0.5062484741210938,10.814949035644531,3.0,2020-03-03 17:48:20.940000-06:00,2020-03-03 17:00
1583279300990.0,0.0,0.0,83.36956787109375,0.69805908203125,0.6514892578125,0.13226318359375,0.26458740234375,-0.3898439407348633,2.5765609741210938,0.03204345703125,8.730194091796875,3.0,2020-03-03 17:48:20.990000-06:00,2020-03-03 17:00
1583279301040.0,0.0,0.0,85.70559692382812,0.6713745594024658,0.658679187297821,0.16845703125,0.2938598394393921,-0.0671844482421875,0.607818603515625,-1.51953125,4.3410186767578125,3.0,2020-03-03 17:48:21.040000-06:00,2020-03-03 17:00
1583279301090.0,0.0,0.0,87.92477416992188,0.6456420421600342,0.6618896462023258,0.20817875862121582,0.3178344964981079,0.8078136444091797,-1.2492141723632812,-1.4000015258789062,4.8466796875,3.0,2020-03-03 17:48:21.090000-06:00,2020-03-03 17:00
1583279301140.0,0.0,0.0,90.33055114746094,0.6195557117462158,0.6632080078125,0.2504394054412842,0.33625489473342896,1.3953094482421875,-2.0835933685302734,-0.35390472412109375,6.804656982421875,3.0,2020-03-03 17:48:21.140000-06:00,2020-03-03 17:00
1583279301190.0,0.0,0.0,92.04385375976562,0.5993896722793579,0.6610351502895355,0.2840331792831421,0.3504883050918579,1.5914077758789062,-2.635936737060547,-0.08124923706054688,9.932373046875,3.0,2020-03-03 17:48:21.190000-06:00,2020-03-03 17:00
1583279301240.0,0.0,0.0,92.82898712158203,0.5888875722885132,0.6536865234375,0.31160473823547363,0.35845947265625,1.69140625,-2.90625,-0.6119794845581055,12.307003021240234,3.0,2020-03-03 17:48:21.240000-06:00,2020-03-03 17:00
1583279301290.0,0.0,0.0,93.63876914978027,0.581512451171875,0.64520263671875,0.3395843505859375,0.3607177734375,2.419921875,-2.46875,-0.8486328125,12.924652099609375,3.0,2020-03-03 17:48:21.290000-06:00,2020-03-03 17:00
1583279301340.0,0.0,0.0,92.62466430664062,0.5852905213832855,0.6270507574081421,0.35999757051467896,0.3667358160018921,1.7632808685302734,-2.3890609741210938,-1.3132810592651367,10.8116455078125,3.0,2020-03-03 17:48:21.340000-06:00,2020-03-03 17:00
1583279301390.0,0.0,0.0,90.41600036621094,0.594958484172821,0.6055786609649658,0.36972659826278687,0.37725830078125,1.4500007629394531,-1.77734375,-1.6296882629394531,8.211433410644531,3.0,2020-03-03 17:48:21.390000-06:00,2020-03-03 17:00
1583279301440.0,0.0,0.0,87.78855895996094,0.607189953327179,0.5799926519393921,0.37969970703125,0.38801270723342896,1.1171875,-1.5570297241210938,-1.6531257629394531,6.675872802734375,3.0,2020-03-03 17:48:21.440000-06:00,2020-03-03 17:00
1583279301490.0,0.0,0.0,84.8170166015625,0.620288074016571,0.5547240972518921,0.3833862319588661,0.40037840604782104,1.2312507629394531,-1.2078125476837158,-1.05078125,4.3212890625,3.0,2020-03-03 17:48:21.490000-06:00,2020-03-03 17:00
1583279301540.0,0.0,0.0,81.77090454101562,0.6317260265350342,0.5274292230606079,0.38734132051467896,0.41522216796875,1.0242195129394531,-1.2515621185302734,-0.9765625,3.8206329345703125,3.0,2020-03-03 17:48:21.540000-06:00,2020-03-03 17:00
1583279301590.0,0.0,0.0,79.05825805664062,0.640625,0.5020507574081421,0.3910888731479645,0.42939454317092896,1.2124996185302734,-0.9984397888183594,-1.1687507629394531,4.199462890625,3.0,2020-03-03 17:48:21.590000-06:00,2020-03-03 17:00
1583279301640.0,0.0,0.0,76.45635223388672,0.6481689214706421,0.4819701910018921,0.38795165717601776,0.4437255859375,1.0015621185302734,-0.5164060592651367,-0.8445310592651367,2.0101661682128906,3.0,2020-03-03 17:48:21.640000-06:00,2020-03-03 17:00
1583279301690.0,0.0,0.0,74.98186111450195,0.6503417938947678,0.46284180879592896,0.39509278535842896,0.45451658964157104,0.9054679870605469,-0.4148426055908203,-1.0179686546325684,2.1545867919921875,3.0,2020-03-03 17:48:21.690000-06:00,2020-03-03 17:00
1583279301740.0,0.0,0.0,74.04673767089844,0.6494995057582855,0.4486083984375,0.40159912407398224,0.4642333984375,0.6773443222045898,-0.4992179870605469,-0.92578125,1.8174591064453125,3.0,2020-03-03 17:48:21.740000-06:00,2020-03-03 17:00
1583279301790.0,0.0,0.0,72.79331970214844,0.647705078125,0.43719482421875,0.401123046875,0.4777953624725342,0.41562652587890625,-0.7484359741210938,-0.9343757629394531,2.0725154876708984,3.0,2020-03-03 17:48:21.790000-06:00,2020-03-03 17:00
1583279301840.0,0.0,0.0,72.53868103027344,0.640246570110321,0.4270996153354645,0.40925294160842896,0.48997801542282104,0.33203125,-0.8359375,-1.0218734741210938,2.8137664794921875,3.0,2020-03-03 17:48:21.840000-06:00,2020-03-03 17:00
1583279301890.0,0.0,0.0,73.95574951171875,0.6291137933731079,0.41970211267471313,0.4306274652481079,0.4922729507088661,0.9375,-1.390625,-1.2046890258789062,4.908843994140625,3.0,2020-03-03 17:48:21.890000-06:00,2020-03-03 17:00
1583279301940.0,0.0,0.0,76.50465393066406,0.61480712890625,0.40837401151657104,0.46494150161743164,0.48847657442092896,1.1460952758789062,-1.2062492370605469,-2.315624237060547,8.638427734375,3.0,2020-03-03 17:48:21.940000-06:00,2020-03-03 17:00
1583279301990.0,0.0,0.0,79.48674011230469,0.600878894329071,0.3954589366912842,0.5021119117736816,0.4796631336212158,2.1773452758789062,-0.924224853515625,-2.1734390258789062,11.42095947265625,3.0,2020-03-03 17:48:21.990000-06:00,2020-03-03 17:00
1583279302040.0,0.0,0.0,82.69781494140625,0.5847656726837158,0.38602298498153687,0.5359009504318237,0.4706176817417145,2.1671905517578125,0.09765625,-1.6375007629394531,7.847076416015625,3.0,2020-03-03 17:48:22.040000-06:00,2020-03-03 17:00
1583279302090.0,0.0,0.0,85.61787414550781,0.56292724609375,0.37810057401657104,0.5645385980606079,0.47026365995407104,1.3125,0.6187515258789062,-1.8250007629394531,5.691581726074219,3.0,2020-03-03 17:48:22.090000-06:00,2020-03-03 17:00
1583279302140.0,0.0,0.0,88.64530944824219,0.534942626953125,0.371490478515625,0.591583251953125,0.474822998046875,0.900390625,0.97265625,-2.103515625,6.559295654296875,3.0,2020-03-03 17:48:22.140000-06:00,2020-03-03 17:00
1583279302190.0,0.0,0.0,92.66847229003906,0.50634765625,0.369537353515625,0.62164306640625,0.469146728515625,1.0859375,0.736328125,-2.09765625,6.59759521484375,3.0,2020-03-03 17:48:22.190000-06:00,2020-03-03 17:00
1583279302240.0,0.0,0.0,96.83407592773438,0.47589111328125,0.370941162109375,0.6494140625,0.46240234375,1.65625,0.4765625,-1.1328125,4.4832763671875,3.0,2020-03-03 17:48:22.240000-06:00,2020-03-03 17:00
1583279302290.0,0.0,0.0,98.93307495117188,0.44244384765625,0.36932373046875,0.66424560546875,0.475494384765625,2.029296875,-0.224609375,-1.46875,7.180877685546875,3.0,2020-03-03 17:48:22.290000-06:00,2020-03-03 17:00
1583279302340.0,0.0,0.0,99.19166851043701,0.404144287109375,0.37005615234375,0.66552734375,0.506072998046875,1.87109375,-0.55859375,-1.9375,7.803131103515625,3.0,2020-03-03 17:48:22.340000-06:00,2020-03-03 17:00
1583279302390.0,0.0,0.0,98.82967948913574,0.363494873046875,0.39569091796875,0.647613525390625,0.5389404296875,1.896484375,-0.828125,-2.017578125,8.827880859375,3.0,2020-03-03 17:48:22.390000-06:00,2020-03-03 17:00
1583279302440.0,0.0,0.0,98.38715553283691,0.3157835006713867,0.4356811046600342,0.6183716058731079,0.5708129405975342,1.8921890258789062,-1.1335945129394531,-1.88671875,9.03509521484375,3.0,2020-03-03 17:48:22.440000-06:00,2020-03-03 17:00
1583279302490.0,0.0,0.0,96.54426574707031,0.27239990234375,0.474822998046875,0.575103759765625,0.607147216796875,1.822265625,-1.68359375,-2.388671875,14.2200927734375,3.0,2020-03-03 17:48:22.490000-06:00,2020-03-03 17:00
1583279302540.0,0.0,0.0,94.0242691040039,0.2801024913787842,0.4974853992462158,0.5360473394393921,0.62158203125,3.4867172241210938,-2.2593746185302734,-3.3382816314697266,29.3648681640625,3.0,2020-03-03 17:48:22.540000-06:00,2020-03-03 17:00
1583279302590.0,0.0,0.0,93.75834655761719,0.30217278003692627,0.5147826671600342,0.517346203327179,0.6129394173622131,3.9398441314697266,0.0187530517578125,-2.573436737060547,25.5206298828125,3.0,2020-03-03 17:48:22.590000-06:00,2020-03-03 17:00
1583279302640.0,0.0,0.0,94.1888599395752,0.3277221918106079,0.5324950218200684,0.5028319954872131,0.5965332388877869,2.9359359741210938,1.265625,-1.8968734741210938,14.32025146484375,3.0,2020-03-03 17:48:22.640000-06:00,2020-03-03 17:00
1583279302690.0,0.0,0.0,94.79070281982422,0.3511718511581421,0.5457519292831421,0.49384766817092896,0.57855224609375,1.328125,1.01171875,-1.1640625,5.122222900390625,3.0,2020-03-03 17:48:22.690000-06:00,2020-03-03 17:00
1583279302740.0,0.0,0.0,93.90167999267578,0.3770507574081421,0.55096435546875,0.4799683094024658,0.5688842684030533,1.7390670776367188,-0.2062530517578125,-0.6687498092651367,5.2315673828125,3.0,2020-03-03 17:48:22.740000-06:00,2020-03-03 17:00
1583279302790.0,0.0,0.0,91.25434875488281,0.40662848949432373,0.548718273639679,0.4579589366912842,0.5687744095921516,1.8078155517578125,-1.2375011444091797,-1.9140625,10.016281127929688,3.0,2020-03-03 17:48:22.790000-06:00,2020-03-03 17:00
1583279302840.0,0.0,0.0,88.36451721191406,0.4383544921875,0.5407348871231079,0.4395996332168579,0.567309558391571,1.17578125,-0.38359832763671875,-2.9171876907348633,10.787307739257812,3.0,2020-03-03 17:48:22.840000-06:00,2020-03-03 17:00
1583279302890.0,0.0,0.0,84.83944702148438,0.4697265625,0.5297607779502869,0.41737067699432373,0.56927490234375,2.0804672241210938,0.34375,-3.078907012939453,14.628173828125,3.0,2020-03-03 17:48:22.890000-06:00,2020-03-03 17:00
1583279302940.0,0.0,0.0,80.52462768554688,0.49398183822631836,0.5188477039337158,0.38498544692993164,0.5814453363418579,1.029693603515625,1.084381103515625,-2.8648433685302734,12.8355712890625,3.0,2020-03-03 17:48:22.940000-06:00,2020-03-03 17:00
1583279302990.0,0.0,0.0,79.17086410522461,0.5008056685328484,0.5187133848667145,0.37012939527630806,0.5857788026332855,-0.25390625,3.475006103515625,-2.172657012939453,19.48406982421875,3.0,2020-03-03 17:48:22.990000-06:00,2020-03-03 17:00
1583279303040.0,0.0,0.0,81.55271911621094,0.49494627118110657,0.5314574837684631,0.37947994470596313,0.5730102062225342,-0.31640625,3.8453140258789062,-1.8671875,18.91973876953125,3.0,2020-03-03 17:48:23.040000-06:00,2020-03-03 17:00
1583279303090.0,0.0,0.0,84.0723648071289,0.4877685606479645,0.543383777141571,0.3912353515625,0.5600707530975342,-0.45078086853027344,0.5234375,-1.5062522888183594,7.78717041015625,3.0,2020-03-03 17:48:23.090000-06:00,2020-03-03 17:00
1583279303140.0,0.0,0.0,84.19428253173828,0.48292237520217896,0.544201672077179,0.3915160894393921,0.563342273235321,-1.1203117370605469,-1.6242179870605469,-0.734375,4.9008636474609375,3.0,2020-03-03 17:48:23.140000-06:00,2020-03-03 17:00
1583279303190.0,0.0,0.0,83.02093505859375,0.4808715842664242,0.537915050983429,0.38714599609375,0.5740112066268921,-0.9281234741210938,-1.1750030517578125,-0.07421875,2.833984375,3.0,2020-03-03 17:48:23.190000-06:00,2020-03-03 17:00
1583279303240.0,0.0,0.0,81.65262603759766,0.47730714082717896,0.52978515625,0.38304442167282104,0.587109386920929,-0.3171882629394531,-0.2531280517578125,0.2937498092651367,0.4520072937011719,3.0,2020-03-03 17:48:23.240000-06:00,2020-03-03 17:00
1583279303290.0,0.0,0.0,80.98157215118408,0.469482421875,0.5203613638877869,0.38831788301467896,0.5982666015625,-0.05624961853027344,0.6507835388183594,0.37734365463256836,0.807830810546875,3.0,2020-03-03 17:48:23.290000-06:00,2020-03-03 17:00
1583279303340.0,0.0,0.0,81.04197025299072,0.4619995355606079,0.5121093690395355,0.39981693029403687,0.6036621183156967,1.1242141723632812,0.4265632629394531,0.06562423706054688,2.5818328857421875,3.0,2020-03-03 17:48:23.340000-06:00,2020-03-03 17:00
1583279303390.0,0.0,0.0,81.19680881500244,0.4578491151332855,0.506457507610321,0.4086059629917145,0.605712890625,2.1257801055908203,-0.09921836853027344,-0.3156242370605469,4.705421447753906,3.0,2020-03-03 17:48:23.390000-06:00,2020-03-03 17:00
1583279303440.0,0.0,0.0,81.64599227905273,0.4523681700229645,0.5034057646989822,0.4170043468475342,0.6066040024161339,1.6937522888183594,0.17812347412109375,-0.6085929870605469,3.6195831298828125,3.0,2020-03-03 17:48:23.440000-06:00,2020-03-03 17:00
1583279303490.0,0.0,0.0,82.19781303405762,0.4466797113418579,0.49980467557907104,0.42694091796875,0.6069091795943677,1.0148448944091797,0.18202972412109375,-0.729687511920929,1.681549072265625,3.0,2020-03-03 17:48:23.490000-06:00,2020-03-03 17:00
1583279303540.0,0.0,0.0,82.74306106567383,0.4426635652780533,0.49737548828125,0.4352661073207855,0.6059814468026161,1.5398406982421875,-0.17890548706054688,-0.7882814407348633,3.3888092041015625,3.0,2020-03-03 17:48:23.540000-06:00,2020-03-03 17:00
1583279303590.0,0.0,0.0,84.00198364257812,0.4400878846645355,0.4975219704210758,0.4474242925643921,0.5987914800643921,1.3367156982421875,0.3304710388183594,-0.6859369277954102,2.962005615234375,3.0,2020-03-03 17:48:23.590000-06:00,2020-03-03 17:00
1583279303640.0,0.0,0.0,85.76253509521484,0.44233396649360657,0.50225830078125,0.4590942859649658,0.5841307640075684,1.71875,0.31640625,-0.6453123092651367,4.066131591796875,3.0,2020-03-03 17:48:23.640000-06:00,2020-03-03 17:00
1583279303690.0,0.0,0.0,86.38643455505371,0.4428344815969467,0.508959949016571,0.45761722326278687,0.5791381895542145,0.857818603515625,-1.1171875,-1.2960929870605469,6.114528656005859,3.0,2020-03-03 17:48:23.690000-06:00,2020-03-03 17:00
1583279303740.0,0.0,0.0,85.77971267700195,0.44395752251148224,0.50909423828125,0.4516967684030533,0.5828369110822678,-0.7914047241210938,-1.870312511920929,-1.0320281982421875,5.825035095214844,3.0,2020-03-03 17:48:23.740000-06:00,2020-03-03 17:00
1583279303790.0,0.0,0.0,84.94868850708008,0.45046383142471313,0.502856433391571,0.45067138969898224,0.5840332023799419,-0.01953125,-0.9671859741210938,-0.8093757629394531,3.194061279296875,3.0,2020-03-03 17:48:23.790000-06:00,2020-03-03 17:00
1583279303840.0,0.0,0.0,83.84849548339844,0.4584716558456421,0.4945923089981079,0.44920654594898224,0.5859741270542145,0.6328125,-0.43515634536743164,-0.97265625,1.5596427917480469,3.0,2020-03-03 17:48:23.840000-06:00,2020-03-03 17:00
1583279303890.0,0.0,0.0,82.7205696105957,0.46663814783096313,0.4873046875,0.4462890625,0.5878662094473839,0.7406253814697266,-0.10312271118164062,-0.9828124940395355,1.6537590026855469,3.0,2020-03-03 17:48:23.890000-06:00,2020-03-03 17:00
1583279303940.0,0.0,0.0,81.5116958618164,0.4750122129917145,0.479248046875,0.44328613579273224,0.5900390595197678,0.5062522888183594,0.1343749761581421,-0.8999996185302734,1.1877174377441406,3.0,2020-03-03 17:48:23.940000-06:00,2020-03-03 17:00
1583279303990.0,0.0,0.0,79.87226104736328,0.48137205839157104,0.4706787168979645,0.4364868402481079,0.5968017578125,0.10000038146972656,0.06874990463256836,-0.8460937440395355,0.7477145195007324,3.0,2020-03-03 17:48:23.990000-06:00,2020-03-03 17:00
1583279304040.0,0.0,0.0,78.53293228149414,0.4828125014901161,0.46477049589157104,0.4296509027481079,0.605224609375,0.03046870231628418,0.7953109741210938,-1.01171875,2.064788818359375,3.0,2020-03-03 17:48:24.040000-06:00,2020-03-03 17:00
1583279304090.0,0.0,0.0,78.17480373382568,0.4783935546875,0.4612182676792145,0.4298950135707855,0.611218273639679,-0.29843902587890625,1.6632843017578125,-0.9429702758789062,3.9329452514648438,3.0,2020-03-03 17:48:24.090000-06:00,2020-03-03 17:00
1583279304140.0,0.0,0.0,78.4788589477539,0.47156980633735657,0.45756836235523224,0.4367309808731079,0.6143798828125,-0.1328125,1.4429702758789062,-0.8851561546325684,3.132293701171875,3.0,2020-03-03 17:48:24.140000-06:00,2020-03-03 17:00
1583279304190.0,0.0,0.0,76.74281311035156,0.468994140625,0.4435913562774658,0.43413084745407104,0.6281249523162842,0.20781230926513672,0.5929679870605469,-0.932812511920929,1.4658279418945312,3.0,2020-03-03 17:48:24.190000-06:00,2020-03-03 17:00
1583279304240.0,0.0,0.0,74.9917221069336,0.46424558758735657,0.4406372308731079,0.41983652114868164,0.6433471441268921,2.7703094482421875,-4.161712646484375,-0.8367195129394531,42.7705078125,3.0,2020-03-03 17:48:24.240000-06:00,2020-03-03 17:00
1583279304290.0,0.0,0.0,74.66995632648468,0.4600830078125,0.4474121332168579,0.4093993902206421,0.6484619081020355,2.9382781982421875,-2.395294189453125,-0.9171867370605469,31.433349609375,3.0,2020-03-03 17:48:24.290000-06:00,2020-03-03 17:00
1583279304340.0,0.0,0.0,75.26595687866211,0.45885009691119194,0.4543823301792145,0.4078613296151161,0.64544677734375,1.0265655517578125,0.8070316314697266,-0.8960933685302734,3.0696258544921875,3.0,2020-03-03 17:48:24.340000-06:00,2020-03-03 17:00
1583279304390.0,0.0,0.0,76.88072967529297,0.4560546875,0.46647948026657104,0.41093750298023224,0.6367553472518921,0.31640625,1.06640625,-0.9429693222045898,2.174285888671875,3.0,2020-03-03 17:48:24.390000-06:00,2020-03-03 17:00
1583279304440.0,0.0,0.0,78.97187042236328,0.4482421875,0.482666015625,0.4139160215854645,0.6282226741313934,0.22734379768371582,0.76171875,-0.98046875,1.7271194458007812,3.0,2020-03-03 17:48:24.440000-06:00,2020-03-03 17:00
1583279304490.0,0.0,0.0,80.87439727783203,0.4366210699081421,0.49744874238967896,0.41618651151657104,0.6233886629343033,0.18906259536743164,0.3406248092651367,-0.6750011444091797,0.6682548522949219,3.0,2020-03-03 17:48:24.490000-06:00,2020-03-03 17:00
1583279304540.0,0.0,0.0,81.85688400268555,0.42135000228881836,0.502966308966279,0.41975098848342896,0.6270507872104645,0.6781272888183594,-0.04453086853027344,-0.47578132152557373,0.9201812744140625,3.0,2020-03-03 17:48:24.540000-06:00,2020-03-03 17:00
1583279304590.0,0.0,0.0,81.69461059570312,0.4079711437225342,0.49919435381889343,0.4225708022713661,0.636962890625,0.9453125,0.18515777587890625,-1.3414077758789062,3.366790771484375,3.0,2020-03-03 17:48:24.590000-06:00,2020-03-03 17:00
1583279304640.0,0.0,0.0,81.24326133728027,0.40190429985523224,0.49335938692092896,0.42481689155101776,0.6438842862844467,1.2828102111816406,0.21718788146972656,-2.3148422241210938,7.2942047119140625,3.0,2020-03-03 17:48:24.640000-06:00,2020-03-03 17:00
1583279304690.0,0.0,0.0,80.7645378112793,0.39973144978284836,0.48293453454971313,0.43181151151657104,0.648425281047821,1.2039070129394531,-0.19687461853027344,-1.8757781982421875,5.4464111328125,3.0,2020-03-03 17:48:24.690000-06:00,2020-03-03 17:00
1583279304740.0,0.0,0.0,81.12312316894531,0.37667226791381836,0.46855467557907104,0.4506591558456421,0.6594482064247131,1.7632827758789062,-0.2960934638977051,-2.5750045776367188,11.1431884765625,3.0,2020-03-03 17:48:24.740000-06:00,2020-03-03 17:00
1583279304790.0,0.0,0.0,82.15754699707031,0.3453124761581421,0.45268553495407104,0.47606194019317627,0.669921875,1.3312454223632812,-0.41562557220458984,-1.9968719482421875,7.77996826171875,3.0,2020-03-03 17:48:24.790000-06:00,2020-03-03 17:00
1583279304840.0,0.0,0.0,82.79999542236328,0.3201782703399658,0.4310668706893921,0.501220703125,0.6782348155975342,1.1898460388183594,-0.40390586853027344,-1.0609376430511475,2.87774658203125,3.0,2020-03-03 17:48:24.840000-06:00,2020-03-03 17:00
1583279304890.0,0.0,0.0,83.34257507324219,0.29721689224243164,0.4015258550643921,0.5294555425643921,0.685192883014679,1.6085929870605469,-0.39453125,-0.8187503814697266,3.4545228481292725,3.0,2020-03-03 17:48:24.890000-06:00,2020-03-03 17:00
1583279304940.0,0.0,0.0,84.6263427734375,0.2706298828125,0.3657104969024658,0.5645751953125,0.6880249008536339,1.80859375,-0.6359367370605469,-0.9132804870605469,4.5867767333984375,3.0,2020-03-03 17:48:24.940000-06:00,2020-03-03 17:00
1583279304990.0,0.0,0.0,86.95095825195312,0.23844003677368164,0.3273439407348633,0.60455322265625,0.6851562261581421,1.6257801055908203,-0.7210941314697266,-1.1187496185302734,4.468376159667969,3.0,2020-03-03 17:48:24.990000-06:00,2020-03-03 17:00
1583279305040.0,0.0,0.0,89.66189575195312,0.2094482183456421,0.2879760265350342,0.6429686546325684,0.6774170398712158,1.1531257629394531,-0.84375,-1.0875000953674316,3.297618865966797,3.0,2020-03-03 17:48:25.040000-06:00,2020-03-03 17:00
1583279305090.0,0.0,0.0,91.71070098876953,0.193115234375,0.252166748046875,0.67138671875,0.66912841796875,0.666015625,-0.75390625,-1.181640625,2.5500030517578125,3.0,2020-03-03 17:48:25.090000-06:00,2020-03-03 17:00
1583279305140.0,0.0,0.0,93.29580688476562,0.186798095703125,0.2122802734375,0.69512939453125,0.66058349609375,0.59375,-0.64453125,-1.57421875,3.368896484375,3.0,2020-03-03 17:48:25.140000-06:00,2020-03-03 17:00
1583279305190.0,0.0,0.0,94.58950805664062,0.18303221464157104,0.1739135980606079,0.713793933391571,0.653063952922821,0.5890617370605469,-0.0515594482421875,-2.5164031982421875,7.3323974609375,3.0,2020-03-03 17:48:25.190000-06:00,2020-03-03 17:00
1583279305240.0,0.0,0.0,95.55943298339844,0.17564699053764343,0.1447998285293579,0.7261230945587158,0.6486084014177322,0.7398433685302734,0.25546836853027344,-2.827342987060547,8.695148468017578,3.0,2020-03-03 17:48:25.240000-06:00,2020-03-03 17:00
1583279305290.0,0.0,0.0,96.12602806091309,0.16618651151657104,0.11864006519317627,0.734240710735321,0.6472900388762355,1.12890625,-0.20781326293945312,-2.6226558685302734,8.317395210266113,3.0,2020-03-03 17:48:25.290000-06:00,2020-03-03 17:00
1583279305340.0,0.0,0.0,96.32759475708008,0.15617674589157104,0.09595942497253418,0.73876953125,0.6484375,1.1976561546325684,-0.47421884536743164,-2.2789058685302734,6.90435791015625,3.0,2020-03-03 17:48:25.340000-06:00,2020-03-03 17:00
1583279305390.0,0.0,0.0,96.46362972259521,0.1468750238418579,0.07684326171875,0.7418334931135178,0.64971923828125,1.1062498092651367,-0.6312503814697266,-2.057812452316284,5.873480796813965,3.0,2020-03-03 17:48:25.390000-06:00,2020-03-03 17:00
1583279305440.0,0.0,0.0,97.03575134277344,0.1377807855606079,0.0633544921875,0.7464599609375,0.64788818359375,1.1125001907348633,-0.8132820129394531,-1.7078113555908203,4.8916473388671875,3.0,2020-03-03 17:48:25.440000-06:00,2020-03-03 17:00
1583279305490.0,0.0,0.0,97.78261947631836,0.12629395723342896,0.055895984172821045,0.7513794004917145,0.6452148482203484,1.3234367370605469,-0.6789073944091797,-1.3773441314697266,4.165172576904297,3.0,2020-03-03 17:48:25.490000-06:00,2020-03-03 17:00
1583279305540.0,0.0,0.0,97.97158813476562,0.11677244305610657,0.05098879337310791,0.7528198249638081,0.645764172077179,1.7242183685302734,-0.5882811546325684,-1.3031249940395355,5.069938659667969,3.0,2020-03-03 17:48:25.540000-06:00,2020-03-03 17:00
1583279305590.0,0.0,0.0,97.60330772399902,0.10744631290435791,0.046093761920928955,0.7510131895542145,0.6498168706893921,2.5500030517578125,-0.40468597412109375,-1.5203132629394531,9.310546875,3.0,2020-03-03 17:48:25.590000-06:00,2020-03-03 17:00
1583279305640.0,0.0,0.0,96.77687454223633,0.09395748376846313,0.04219970107078552,0.7464599609375,0.6573364734649658,2.94140625,-0.13203144073486328,-1.5562496185302734,11.111686706542969,3.0,2020-03-03 17:48:25.640000-06:00,2020-03-03 17:00
1583279305690.0,0.0,0.0,95.28346252441406,0.07578134536743164,0.037585437297821045,0.7379516363143921,0.66937255859375,2.9765625,-0.1953125,-1.8359375,12.368896484375,3.0,2020-03-03 17:48:25.690000-06:00,2020-03-03 17:00
1583279305740.0,0.0,0.0,93.3799057006836,0.05555415153503418,0.031603991985321045,0.726940929889679,0.68359375,2.7132816314697266,-0.5148448944091797,-1.8640632629394531,11.22265625,3.0,2020-03-03 17:48:25.740000-06:00,2020-03-03 17:00
1583279305790.0,0.0,0.0,92.2128677368164,0.03251945972442627,0.02347409725189209,0.7202270478010178,0.69244384765625,2.4671878814697266,-1.1593742370605469,-1.3656234741210938,9.5504150390625,3.0,2020-03-03 17:48:25.790000-06:00,2020-03-03 17:00
1583279305840.0,0.0,0.0,92.32318115234375,0.00980222225189209,0.012280285358428955,0.7211547791957855,0.6924682706594467,1.685150146484375,-1.62109375,-0.80859375,6.576690673828125,3.0,2020-03-03 17:48:25.840000-06:00,2020-03-03 17:00
1583279305890.0,0.0,0.0,94.17071533203125,0.01230466365814209,-0.0030028820037841797,-0.1540985107421875,-0.1278228759765625,0.8953132629394531,-1.5640621185302734,-0.602343738079071,3.6797409057617188,3.0,2020-03-03 17:48:25.890000-06:00,2020-03-03 17:00
1583279305940.0,0.0,0.0,97.07872009277344,0.02716064453125,-0.017504870891571045,-0.7491210699081421,-0.6614624261856079,0.28125,-1.482812523841858,-1.1234359741210938,3.83758544921875,3.0,2020-03-03 17:48:25.940000-06:00,2020-03-03 17:00
1583279305990.0,0.0,0.0,101.02285766601562,0.037933349609375,-0.038238525390625,-0.77044677734375,-0.63458251953125,-0.080078125,-1.6015625,-1.7734375,5.8277130126953125,3.0,2020-03-03 17:48:25.990000-06:00,2020-03-03 17:00
1583279306040.0,0.0,0.0,107.2696533203125,0.0540771484375,-0.0648193359375,-0.802215576171875,-0.590057373046875,0.587890625,-1.357421875,-2.87109375,11.74468994140625,3.0,2020-03-03 17:48:26.040000-06:00,2020-03-03 17:00
1583279306090.0,0.0,0.0,114.60760498046875,0.081298828125,-0.07512206956744194,-0.8378783464431763,-0.5335571765899658,1.5867176055908203,-1.6953125,-3.0757789611816406,15.443527221679688,3.0,2020-03-03 17:48:26.090000-06:00,2020-03-03 17:00
1583279306140.0,0.0,0.0,118.91639709472656,0.11201179027557373,-0.06364750862121582,-0.8587890267372131,-0.4952881336212158,1.9156255722045898,-2.549999237060547,-2.5851564407348633,16.982406616210938,3.0,2020-03-03 17:48:26.140000-06:00,2020-03-03 17:00
1583279306190.0,0.0,0.0,118.20237731933594,0.1381469964981079,-0.062280237674713135,-0.855725109577179,-0.49449455738067627,1.3835906982421875,-1.8328170776367188,-3.31640625,17.60821533203125,3.0,2020-03-03 17:48:26.190000-06:00,2020-03-03 17:00
1583279306240.0,0.0,0.0,115.26325988769531,0.14885254204273224,-0.06829833984375,-0.841809093952179,-0.5142333507537842,0.2492218017578125,0.2101593017578125,-3.5242176055908203,14.217926025390625,3.0,2020-03-03 17:48:26.240000-06:00,2020-03-03 17:00
1583279306290.0,0.0,0.0,113.9727554321289,0.16182851791381836,-0.074951171875,-0.8351684510707855,-0.520153820514679,0.5906295776367188,0.8976554870605469,-2.76953125,9.4976806640625,3.0,2020-03-03 17:48:26.290000-06:00,2020-03-03 17:00
1583279306340.0,0.0,0.0,114.98409271240234,0.19986581802368164,-0.10478520393371582,-0.83648681640625,-0.4979982376098633,0.14141082763671875,1.666412353515625,-3.3195343017578125,15.5970458984375,3.0,2020-03-03 17:48:26.340000-06:00,2020-03-03 17:00
1583279306390.0,0.0,0.0,115.17286682128906,0.23936760425567627,-0.14403080940246582,-0.8316161632537842,-0.4793457090854645,-0.8968772888183594,3.2437515258789062,-5.4539031982421875,43.335693359375,3.0,2020-03-03 17:48:26.390000-06:00,2020-03-03 17:00
1583279306440.0,0.0,0.0,112.83558654785156,0.24848634004592896,-0.1700805425643921,-0.8153809309005737,-0.4940185546875,-0.5812492370605469,1.6046905517578125,-6.231250762939453,45.4544677734375,3.0,2020-03-03 17:48:26.440000-06:00,2020-03-03 17:00
1583279306490.0,0.0,0.0,110.35785675048828,0.24458009004592896,-0.18654781579971313,-0.799389660358429,-0.515942394733429,-0.2804684638977051,-0.631256103515625,-5.54296875,31.73394775390625,3.0,2020-03-03 17:48:26.490000-06:00,2020-03-03 17:00
1583279306540.0,0.0,0.0,110.05774688720703,0.25324708223342896,-0.20205074548721313,-0.7941040038131177,-0.514086902141571,-0.31562507152557373,-1.4585952758789062,-3.260162353515625,15.4237060546875,3.0,2020-03-03 17:48:26.540000-06:00,2020-03-03 17:00
1583279306590.0,0.0,0.0,110.79983520507812,0.26791995763778687,-0.21058349311351776,-0.7957397401332855,-0.5005859732627869,-0.43359375,-1.4359378814697266,-0.868743896484375,3.87164306640625,3.0,2020-03-03 17:48:26.590000-06:00,2020-03-03 17:00
1583279306640.0,0.0,0.0,111.16050243377686,0.28874504566192627,-0.20985107123851776,-0.7977661117911339,-0.48569339513778687,0.5679702758789062,-1.8234367370605469,0.13906288146972656,4.7120361328125,3.0,2020-03-03 17:48:26.640000-06:00,2020-03-03 17:00
1583279306690.0,0.0,0.0,111.98320007324219,0.32095956802368164,-0.20989990234375,-0.8019165098667145,-0.4573485851287842,1.4359378814697266,-1.1804656982421875,0.6343746185302734,4.62384033203125,3.0,2020-03-03 17:48:26.690000-06:00,2020-03-03 17:00
1583279306740.0,0.0,0.0,118.10870361328125,0.3385986387729645,-0.24478769302368164,-0.8209594488143921,-0.38510704040527344,1.5499999523162842,-0.26015663146972656,1.4132804870605469,4.7236328125,3.0,2020-03-03 17:48:26.740000-06:00,2020-03-03 17:00
1583279306790.0,0.0,0.0,126.28805541992188,0.34625244140625,-0.3008301258087158,-0.8390868902206421,-0.28702402114868164,1.3468742370605469,-0.28515625,2.7421875,10.070098876953125,3.0,2020-03-03 17:48:26.790000-06:00,2020-03-03 17:00
1583279306840.0,0.0,0.0,132.58517456054688,0.3534789979457855,-0.3479125499725342,-0.8464599847793579,-0.1859130859375,1.0812501907348633,1.1953125,3.7945327758789062,18.8419189453125,3.0,2020-03-03 17:48:26.840000-06:00,2020-03-03 17:00
1583279306890.0,0.0,0.0,136.1846466064453,0.35972902178764343,-0.38190925121307373,-0.8453735411167145,-0.08756113052368164,1.2601566314697266,1.7195320129394531,2.9867172241210938,14.49761962890625,3.0,2020-03-03 17:48:26.890000-06:00,2020-03-03 17:00
1583279306940.0,0.0,0.0,135.82572174072266,0.3717041015625,-0.401092529296875,-0.835174560546875,0.007049560546875,1.197265625,1.76171875,1.416015625,7.478302001953125,3.0,2020-03-03 17:48:26.940000-06:00,2020-03-03 17:00
